host_time_iso,host_time_unix_ns,sample_index,record_type,ir1,ir2,ir3,ir4,ir1_repeat,ir2_repeat,ir3_repeat,ir4_repeat,red1,red2,red3,red4,accel_x_raw,accel_y_raw,accel_z_raw,accel_x_g,accel_y_g,accel_z_g,reserved,heart_rate,debug
2026-05-22T02:37:45.500+00:00,1779417465501939000,1,R,7482,7763,8994,10194,7482,7763,8994,10194,19095,23410,18433,22074,-126,-219,-15,-0.494118,-0.858824,-0.058824,1,255,e00
2026-05-22T02:37:45.502+00:00,1779417465502210000,2,R,7485,7765,8991,10194,7485,7765,8991,10194,19095,23405,18432,22079,-128,-220,-16,-0.501961,-0.862745,-0.062745,1,255,f00
2026-05-22T02:37:45.502+00:00,1779417465502346000,3,R,7487,7765,8992,10196,7487,7765,8992,10196,19098,23403,18431,22079,-127,-221,-16,-0.498039,-0.866667,-0.062745,1,255,000
2026-05-22T02:37:45.502+00:00,1779417465502410000,4,R,7486,7766,8991,10195,7486,7766,8991,10195,19097,23400,18429,22078,-125,-222,-17,-0.490196,-0.870588,-0.066667,1,255,100
2026-05-22T02:37:45.502+00:00,1779417465502452000,5,R,7485,7761,8989,10194,7485,7761,8989,10194,19093,23401,18426,22081,-126,-223,-16,-0.494118,-0.87451,-0.062745,1,255,200
2026-05-22T02:37:45.502+00:00,1779417465502491000,6,R,7487,7761,8991,10195,7487,7761,8991,10195,19098,23399,18428,22082,-125,-225,-18,-0.490196,-0.882353,-0.070588,1,255,300
2026-05-22T02:37:45.650+00:00,1779417465650815000,7,R,7486,7759,8991,10195,7486,7759,8991,10195,19101,23403,18421,22082,-127,-224,-17,-0.498039,-0.878431,-0.066667,1,255,400
2026-05-22T02:37:45.650+00:00,1779417465650971000,8,R,7484,7758,8992,10193,7484,7758,8992,10193,19096,23403,18416,22086,-126,-223,-18,-0.494118,-0.87451,-0.070588,1,255,500
2026-05-22T02:37:45.651+00:00,1779417465651060000,9,R,7488,7757,8993,10197,7488,7757,8993,10197,19097,23403,18417,22082,-128,-218,-18,-0.501961,-0.854902,-0.070588,1,255,600
2026-05-22T02:37:45.651+00:00,1779417465651133000,10,R,7491,7757,8992,10195,7491,7757,8992,10195,19095,23407,18416,22084,-129,-219,-17,-0.505882,-0.858824,-0.066667,1,255,700
2026-05-22T02:37:45.651+00:00,1779417465651199000,11,R,7490,7757,8994,10198,7490,7757,8994,10198,19097,23407,18412,22084,-131,-221,-16,-0.513725,-0.866667,-0.062745,1,255,800
2026-05-22T02:37:45.800+00:00,1779417465800848000,12,R,7495,7759,8996,10196,7495,7759,8996,10196,19102,23404,18416,22086,-131,-219,-16,-0.513725,-0.858824,-0.062745,1,255,900
2026-05-22T02:37:45.800+00:00,1779417465800991000,13,R,7496,7758,8999,10200,7496,7758,8999,10200,19111,23405,18415,22094,-131,-220,-16,-0.513725,-0.862745,-0.062745,1,255,a00
2026-05-22T02:37:45.801+00:00,1779417465801067000,14,R,7499,7756,9001,10204,7499,7756,9001,10204,19112,23409,18412,22096,-129,-220,-17,-0.505882,-0.862745,-0.066667,1,255,b00
2026-05-22T02:37:45.801+00:00,1779417465801134000,15,R,7501,7754,9000,10205,7501,7754,9000,10205,19116,23407,18410,22097,-126,-221,-16,-0.494118,-0.866667,-0.062745,1,255,c00
2026-05-22T02:37:45.801+00:00,1779417465801199000,16,R,7505,7757,9000,10207,7505,7757,9000,10207,19121,23413,18408,22100,-127,-218,-17,-0.498039,-0.854902,-0.066667,1,255,d00
2026-05-22T02:37:45.949+00:00,1779417465949367000,17,R,7511,7756,9010,10208,7511,7756,9010,10208,19123,23414,18409,22107,-130,-219,-16,-0.509804,-0.858824,-0.062745,1,255,e00
2026-05-22T02:37:45.949+00:00,1779417465949500000,18,R,7508,7759,9003,10209,7508,7759,9003,10209,19127,23414,18411,22103,-129,-220,-17,-0.505882,-0.862745,-0.066667,1,255,f00
2026-05-22T02:37:45.949+00:00,1779417465949578000,19,R,7511,7758,9006,10211,7511,7758,9006,10211,19130,23417,18406,22103,-130,-222,-16,-0.509804,-0.870588,-0.062745,1,255,000
2026-05-22T02:37:45.949+00:00,1779417465949646000,20,R,7513,7760,9007,10213,7513,7760,9007,10213,19130,23423,18412,22109,-131,-221,-16,-0.513725,-0.866667,-0.062745,1,255,100
2026-05-22T02:37:45.949+00:00,1779417465949709000,21,R,7512,7760,9011,10212,7512,7760,9011,10212,19135,23423,18415,22110,-131,-220,-14,-0.513725,-0.862745,-0.054902,1,255,200
2026-05-22T02:37:45.949+00:00,1779417465949773000,22,R,7513,7758,9012,10217,7513,7758,9012,10217,19137,23424,18413,22111,-131,-219,-13,-0.513725,-0.858824,-0.05098,1,255,300
2026-05-22T02:37:46.099+00:00,1779417466099527000,23,R,7514,7761,9014,10217,7514,7761,9014,10217,19138,23431,18415,22111,-130,-221,-13,-0.509804,-0.866667,-0.05098,1,255,400
2026-05-22T02:37:46.099+00:00,1779417466099662000,24,R,7515,7763,9016,10218,7515,7763,9016,10218,19137,23431,18416,22117,-130,-220,-13,-0.509804,-0.862745,-0.05098,1,255,500
2026-05-22T02:37:46.099+00:00,1779417466099734000,25,R,7518,7763,9016,10218,7518,7763,9016,10218,19143,23436,18419,22115,-129,-220,-14,-0.505882,-0.862745,-0.054902,1,255,600
2026-05-22T02:37:46.099+00:00,1779417466099805000,26,R,7518,7764,9019,10221,7518,7764,9019,10221,19143,23440,18412,22117,-127,-221,-15,-0.498039,-0.866667,-0.058824,1,255,700
2026-05-22T02:37:46.099+00:00,1779417466099871000,27,R,7520,7766,9020,10224,7520,7766,9020,10224,19146,23443,18415,22121,-125,-222,-16,-0.490196,-0.870588,-0.062745,1,255,800
2026-05-22T02:37:46.249+00:00,1779417466249288000,28,R,7522,7764,9023,10227,7522,7764,9023,10227,19141,23445,18413,22124,-124,-222,-16,-0.486275,-0.870588,-0.062745,1,255,900
2026-05-22T02:37:46.249+00:00,1779417466249414000,29,R,7524,7764,9022,10225,7524,7764,9022,10225,19150,23446,18415,22123,-124,-222,-15,-0.486275,-0.870588,-0.058824,1,255,a00
2026-05-22T02:37:46.249+00:00,1779417466249487000,30,R,7525,7767,9024,10227,7525,7767,9024,10227,19152,23453,18419,22125,-124,-221,-15,-0.486275,-0.866667,-0.058824,1,255,b00
2026-05-22T02:37:46.249+00:00,1779417466249554000,31,R,7525,7768,9023,10229,7525,7768,9023,10229,19152,23449,18420,22127,-127,-221,-14,-0.498039,-0.866667,-0.054902,1,255,c00
2026-05-22T02:37:46.249+00:00,1779417466249617000,32,R,7527,7766,9026,10232,7527,7766,9026,10232,19152,23456,18422,22129,-128,-220,-14,-0.501961,-0.862745,-0.054902,1,255,d00
2026-05-22T02:37:46.399+00:00,1779417466399377000,33,R,7529,7768,9030,10231,7529,7768,9030,10231,19150,23455,18423,22128,-130,-220,-14,-0.509804,-0.862745,-0.054902,1,255,e00
2026-05-22T02:37:46.399+00:00,1779417466399465000,34,R,7530,7770,9028,10233,7530,7770,9028,10233,19155,23456,18424,22132,-129,-220,-15,-0.505882,-0.862745,-0.058824,1,255,f00
2026-05-22T02:37:46.399+00:00,1779417466399498000,35,R,7529,7771,9031,10234,7529,7771,9031,10234,19158,23456,18425,22135,-130,-220,-14,-0.509804,-0.862745,-0.054902,1,255,000
2026-05-22T02:37:46.399+00:00,1779417466399526000,36,R,7529,7775,9028,10236,7529,7775,9028,10236,19158,23457,18427,22134,-129,-220,-14,-0.505882,-0.862745,-0.054902,1,255,100
2026-05-22T02:37:46.399+00:00,1779417466399552000,37,R,7530,7774,9032,10236,7530,7774,9032,10236,19159,23463,18426,22137,-129,-221,-14,-0.505882,-0.866667,-0.054902,1,255,200
2026-05-22T02:37:46.399+00:00,1779417466399578000,38,R,7535,7777,9034,10239,7535,7777,9034,10239,19158,23462,18430,22140,-127,-221,-14,-0.498039,-0.866667,-0.054902,1,255,300
2026-05-22T02:37:46.551+00:00,1779417466551776000,39,R,7535,7776,9035,10242,7535,7776,9035,10242,19164,23462,18431,22140,-126,-221,-15,-0.494118,-0.866667,-0.058824,1,255,400
2026-05-22T02:37:46.551+00:00,1779417466551931000,40,R,7536,7776,9036,10240,7536,7776,9036,10240,19165,23466,18430,22142,-126,-221,-14,-0.494118,-0.866667,-0.054902,1,255,500
2026-05-22T02:37:46.551+00:00,1779417466552006000,41,R,7537,7778,9038,10244,7537,7778,9038,10244,19165,23467,18432,22146,-125,-220,-15,-0.490196,-0.862745,-0.058824,1,255,600
2026-05-22T02:37:46.552+00:00,1779417466552105000,42,R,7538,7780,9039,10244,7538,7780,9039,10244,19170,23472,18432,22147,-126,-221,-14,-0.494118,-0.866667,-0.054902,1,255,700
2026-05-22T02:37:46.552+00:00,1779417466552172000,43,R,7540,7781,9042,10247,7540,7781,9042,10247,19174,23471,18436,22151,-127,-220,-14,-0.498039,-0.862745,-0.054902,1,255,800
2026-05-22T02:37:46.700+00:00,1779417466700654000,44,R,7539,7780,9039,10247,7539,7780,9039,10247,19168,23468,18433,22147,-128,-220,-15,-0.501961,-0.862745,-0.058824,1,255,900
2026-05-22T02:37:46.700+00:00,1779417466700767000,45,R,7538,7778,9040,10245,7538,7778,9040,10245,19169,23474,18432,22146,-129,-220,-15,-0.505882,-0.862745,-0.058824,1,255,a00
2026-05-22T02:37:46.700+00:00,1779417466700833000,46,R,7538,7777,9039,10242,7538,7777,9039,10242,19171,23470,18432,22143,-128,-221,-15,-0.501961,-0.866667,-0.058824,1,255,b00
2026-05-22T02:37:46.700+00:00,1779417466700896000,47,R,7534,7772,9035,10237,7534,7772,9035,10237,19166,23463,18425,22137,-128,-222,-15,-0.501961,-0.870588,-0.058824,1,255,c00
2026-05-22T02:37:46.701+00:00,1779417466701192000,48,R,7531,7772,9032,10233,7531,7772,9032,10233,19163,23465,18423,22132,-129,-223,-14,-0.505882,-0.87451,-0.054902,1,255,d00
2026-05-22T02:37:46.851+00:00,1779417466851757000,49,R,7531,7768,9030,10232,7531,7768,9030,10232,19159,23460,18418,22128,-128,-222,-16,-0.501961,-0.870588,-0.062745,1,255,e00
2026-05-22T02:37:46.851+00:00,1779417466851900000,50,R,7529,7767,9028,10225,7529,7767,9028,10225,19158,23455,18419,22125,-128,-220,-16,-0.501961,-0.862745,-0.062745,1,255,f00
2026-05-22T02:37:46.851+00:00,1779417466851975000,51,R,7529,7764,9026,10225,7529,7764,9026,10225,19158,23454,18415,22122,-128,-219,-16,-0.501961,-0.858824,-0.062745,1,255,000
2026-05-22T02:37:46.852+00:00,1779417466852040000,52,R,7526,7765,9024,10224,7526,7765,9024,10224,19155,23449,18415,22119,-128,-220,-16,-0.501961,-0.862745,-0.062745,1,255,100
2026-05-22T02:37:46.852+00:00,1779417466852178000,53,R,7524,7765,9022,10220,7524,7765,9022,10220,19152,23446,18416,22115,-127,-220,-16,-0.498039,-0.862745,-0.062745,1,255,200
2026-05-22T02:37:46.999+00:00,1779417466999676000,54,R,7524,7765,9021,10218,7524,7765,9021,10218,19151,23449,18414,22113,-128,-220,-16,-0.501961,-0.862745,-0.062745,1,255,300
2026-05-22T02:37:46.999+00:00,1779417466999815000,55,R,7524,7763,9020,10215,7524,7763,9020,10215,19149,23450,18414,22115,-129,-221,-16,-0.505882,-0.866667,-0.062745,1,255,400
2026-05-22T02:37:46.999+00:00,1779417466999890000,56,R,7523,7765,9022,10214,7523,7765,9022,10214,19148,23442,18410,22110,-130,-219,-16,-0.509804,-0.858824,-0.062745,1,255,500
2026-05-22T02:37:46.999+00:00,1779417466999956000,57,R,7521,7764,9019,10214,7521,7764,9019,10214,19145,23442,18413,22111,-131,-219,-17,-0.513725,-0.858824,-0.066667,1,255,600
2026-05-22T02:37:47.000+00:00,1779417467000019000,58,R,7519,7759,9021,10215,7519,7759,9021,10215,19144,23439,18414,22109,-132,-220,-16,-0.517647,-0.862745,-0.062745,1,255,700
2026-05-22T02:37:47.000+00:00,1779417467000082000,59,R,7518,7760,9015,10212,7518,7760,9015,10212,19140,23438,18408,22104,-131,-221,-17,-0.513725,-0.866667,-0.066667,1,255,800
2026-05-22T02:37:47.149+00:00,1779417467149426000,60,R,7517,7760,9013,10210,7517,7760,9013,10210,19135,23436,18409,22106,-129,-221,-18,-0.505882,-0.866667,-0.070588,1,255,900
2026-05-22T02:37:47.149+00:00,1779417467149567000,61,R,7517,7762,9015,10212,7517,7762,9015,10212,19136,23432,18408,22101,-128,-220,-17,-0.501961,-0.862745,-0.066667,1,255,a00
2026-05-22T02:37:47.149+00:00,1779417467149641000,62,R,7515,7763,9015,10211,7515,7763,9015,10211,19136,23434,18412,22103,-128,-222,-16,-0.501961,-0.870588,-0.062745,1,255,b00
2026-05-22T02:37:47.149+00:00,1779417467149706000,63,R,7516,7764,9016,10214,7516,7764,9016,10214,19139,23435,18412,22105,-128,-222,-17,-0.501961,-0.870588,-0.066667,1,255,c00
2026-05-22T02:37:47.149+00:00,1779417467149769000,64,R,7516,7765,9017,10213,7516,7765,9017,10213,19138,23432,18413,22103,-127,-219,-17,-0.498039,-0.858824,-0.066667,1,255,d00
2026-05-22T02:37:47.301+00:00,1779417467301934000,65,R,7516,7764,9015,10212,7516,7764,9015,10212,19138,23435,18412,22106,-128,-221,-17,-0.501961,-0.866667,-0.066667,1,255,e00
2026-05-22T02:37:47.302+00:00,1779417467302074000,66,R,7518,7765,9018,10213,7518,7765,9018,10213,19140,23437,18414,22104,-129,-220,-17,-0.505882,-0.862745,-0.066667,1,255,f00
2026-05-22T02:37:47.302+00:00,1779417467302145000,67,R,7516,7763,9017,10213,7516,7763,9017,10213,19138,23435,18416,22104,-130,-221,-14,-0.509804,-0.866667,-0.054902,1,255,000
2026-05-22T02:37:47.302+00:00,1779417467302210000,68,R,7515,7765,9017,10214,7515,7765,9017,10214,19137,23432,18415,22104,-131,-221,-14,-0.513725,-0.866667,-0.054902,1,255,100
2026-05-22T02:37:47.302+00:00,1779417467302272000,69,R,7514,7765,9015,10214,7514,7765,9015,10214,19135,23430,18415,22100,-128,-220,-14,-0.501961,-0.862745,-0.054902,1,255,200
2026-05-22T02:37:47.451+00:00,1779417467451757000,70,R,7513,7764,9015,10213,7513,7764,9015,10213,19134,23436,18415,22103,-127,-220,-15,-0.498039,-0.862745,-0.058824,1,255,300
2026-05-22T02:37:47.451+00:00,1779417467451888000,71,R,7517,7766,9016,10215,7517,7766,9016,10215,19134,23437,18418,22106,-127,-220,-15,-0.498039,-0.862745,-0.058824,1,255,400
2026-05-22T02:37:47.451+00:00,1779417467451965000,72,R,7516,7766,9016,10214,7516,7766,9016,10214,19135,23434,18416,22106,-126,-219,-15,-0.494118,-0.858824,-0.058824,1,255,500
2026-05-22T02:37:47.452+00:00,1779417467452031000,73,R,7517,7767,9016,10216,7517,7767,9016,10216,19135,23439,18417,22106,-128,-220,-14,-0.501961,-0.862745,-0.054902,1,255,600
2026-05-22T02:37:47.452+00:00,1779417467452094000,74,R,7516,7765,9020,10218,7516,7765,9020,10218,19135,23442,18417,22106,-127,-220,-15,-0.498039,-0.862745,-0.058824,1,255,700
2026-05-22T02:37:47.452+00:00,1779417467452157000,75,R,7517,7768,9017,10220,7517,7768,9017,10220,19136,23436,18419,22109,-127,-219,-15,-0.498039,-0.858824,-0.058824,1,255,800
2026-05-22T02:37:47.602+00:00,1779417467602077000,76,R,7516,7768,9019,10218,7516,7768,9019,10218,19137,23440,18422,22105,-127,-221,-16,-0.498039,-0.866667,-0.062745,1,255,900
2026-05-22T02:37:47.602+00:00,1779417467602232000,77,R,7518,7770,9018,10219,7518,7770,9018,10219,19138,23441,18421,22108,-126,-221,-17,-0.494118,-0.866667,-0.066667,1,255,a00
2026-05-22T02:37:47.602+00:00,1779417467602306000,78,R,7517,7772,9020,10222,7517,7772,9020,10222,19137,23440,18422,22113,-128,-221,-17,-0.501961,-0.866667,-0.066667,1,255,b00
2026-05-22T02:37:47.602+00:00,1779417467602382000,79,R,7518,7774,9020,10221,7518,7774,9020,10221,19137,23441,18426,22112,-128,-221,-17,-0.501961,-0.866667,-0.066667,1,255,c00
2026-05-22T02:37:47.602+00:00,1779417467602445000,80,R,7520,7777,9024,10225,7520,7777,9024,10225,19141,23446,18425,22115,-129,-221,-16,-0.505882,-0.866667,-0.062745,1,255,d00
2026-05-22T02:37:47.751+00:00,1779417467751652000,81,R,7518,7776,9020,10226,7518,7776,9020,10226,19135,23443,18425,22115,-130,-221,-16,-0.509804,-0.866667,-0.062745,1,255,e00
2026-05-22T02:37:47.751+00:00,1779417467751689000,82,R,7522,7778,9023,10229,7522,7778,9023,10229,19139,23443,18429,22115,-131,-220,-16,-0.513725,-0.862745,-0.062745,1,255,f00
2026-05-22T02:37:47.751+00:00,1779417467751704000,83,R,7521,7779,9025,10227,7521,7779,9025,10227,19143,23445,18429,22117,-131,-220,-17,-0.513725,-0.862745,-0.066667,1,255,000
2026-05-22T02:37:47.751+00:00,1779417467751718000,84,R,7523,7778,9026,10231,7523,7778,9026,10231,19139,23447,18430,22119,-131,-219,-17,-0.513725,-0.858824,-0.066667,1,255,100
2026-05-22T02:37:47.751+00:00,1779417467751731000,85,R,7524,7779,9025,10232,7524,7779,9025,10232,19144,23448,18434,22123,-131,-220,-16,-0.513725,-0.862745,-0.062745,1,255,200
2026-05-22T02:37:47.902+00:00,1779417467902647000,86,R,7522,7780,9025,10233,7522,7780,9025,10233,19147,23452,18433,22123,-131,-220,-16,-0.513725,-0.862745,-0.062745,1,255,300
2026-05-22T02:37:47.902+00:00,1779417467902679000,87,R,7525,7781,9025,10233,7525,7781,9025,10233,19143,23450,18431,22128,-131,-222,-16,-0.513725,-0.870588,-0.062745,1,255,400
2026-05-22T02:37:47.902+00:00,1779417467902695000,88,R,7527,7784,9031,10240,7527,7784,9031,10240,19145,23453,18437,22127,-130,-222,-16,-0.509804,-0.870588,-0.062745,1,255,500
2026-05-22T02:37:47.902+00:00,1779417467902709000,89,R,7527,7783,9030,10236,7527,7783,9030,10236,19144,23454,18438,22132,-129,-221,-15,-0.505882,-0.866667,-0.058824,1,255,600
2026-05-22T02:37:47.902+00:00,1779417467902722000,90,R,7529,7783,9030,10237,7529,7783,9030,10237,19150,23456,18440,22133,-129,-222,-15,-0.505882,-0.870588,-0.058824,1,255,700
2026-05-22T02:37:47.902+00:00,1779417467902735000,91,R,7529,7783,9033,10238,7529,7783,9033,10238,19149,23456,18440,22130,-129,-220,-14,-0.505882,-0.862745,-0.054902,1,255,800
2026-05-22T02:37:48.053+00:00,1779417468053310000,92,R,7531,7785,9033,10240,7531,7785,9033,10240,19151,23461,18442,22136,-128,-220,-14,-0.501961,-0.862745,-0.054902,1,255,900
2026-05-22T02:37:48.053+00:00,1779417468053479000,93,R,7530,7787,9031,10242,7530,7787,9031,10242,19148,23459,18443,22140,-123,-222,-15,-0.482353,-0.870588,-0.058824,1,255,a00
2026-05-22T02:37:48.053+00:00,1779417468053559000,94,R,7529,7789,9033,10244,7529,7789,9033,10244,19152,23460,18441,22137,-124,-220,-15,-0.486275,-0.862745,-0.058824,1,255,b00
2026-05-22T02:37:48.053+00:00,1779417468053625000,95,R,7530,7788,9037,10245,7530,7788,9037,10245,19151,23462,18442,22139,-124,-220,-16,-0.486275,-0.862745,-0.062745,1,255,c00
2026-05-22T02:37:48.053+00:00,1779417468053688000,96,R,7533,7789,9036,10247,7533,7789,9036,10247,19154,23463,18445,22138,-124,-220,-15,-0.486275,-0.862745,-0.058824,1,255,d00
2026-05-22T02:37:48.202+00:00,1779417468202169000,97,R,7535,7787,9039,10248,7535,7787,9039,10248,19158,23467,18451,22145,-126,-220,-16,-0.494118,-0.862745,-0.062745,1,255,e00
2026-05-22T02:37:48.202+00:00,1779417468202323000,98,R,7532,7790,9040,10249,7532,7790,9040,10249,19157,23467,18442,22142,-128,-220,-15,-0.501961,-0.862745,-0.058824,1,255,f00
2026-05-22T02:37:48.202+00:00,1779417468202397000,99,R,7536,7791,9039,10250,7536,7791,9039,10250,19154,23471,18449,22147,-128,-219,-14,-0.501961,-0.858824,-0.054902,1,255,000
2026-05-22T02:37:48.202+00:00,1779417468202461000,100,R,7542,7789,9050,10252,7542,7789,9050,10252,19158,23473,18451,22148,-129,-218,-12,-0.505882,-0.854902,-0.047059,1,255,100
2026-05-22T02:37:48.202+00:00,1779417468202525000,101,R,7538,7796,9042,10250,7538,7796,9042,10250,19158,23472,18450,22148,-129,-219,-13,-0.505882,-0.858824,-0.05098,1,255,200
2026-05-22T02:37:48.352+00:00,1779417468352315000,102,R,7538,7795,9043,10256,7538,7795,9043,10256,19157,23475,18450,22148,-130,-220,-13,-0.509804,-0.862745,-0.05098,1,255,300
2026-05-22T02:37:48.352+00:00,1779417468352442000,103,R,7540,7796,9044,10256,7540,7796,9044,10256,19161,23472,18455,22153,-131,-220,-13,-0.513725,-0.862745,-0.05098,1,255,400
2026-05-22T02:37:48.352+00:00,1779417468352521000,104,R,7539,7796,9045,10258,7539,7796,9045,10258,19164,23478,18458,22153,-129,-219,-14,-0.505882,-0.858824,-0.054902,1,255,500
2026-05-22T02:37:48.352+00:00,1779417468352589000,105,R,7544,7811,9051,10268,7544,7811,9051,10268,19148,23458,18452,22142,-130,-219,-14,-0.509804,-0.858824,-0.054902,1,255,b1970
2026-05-22T02:37:48.352+00:00,1779417468352652000,106,R,7547,7809,9052,10266,7547,7809,9052,10266,19151,23463,18455,22141,-130,-219,-14,-0.509804,-0.858824,-0.054902,1,255,c1970
2026-05-22T02:37:48.352+00:00,1779417468352716000,107,R,7545,7813,9055,10272,7545,7813,9055,10272,19151,23463,18456,22143,-131,-220,-15,-0.513725,-0.862745,-0.058824,1,255,d1970
2026-05-22T02:37:48.502+00:00,1779417468502711000,108,R,7547,7816,9058,10273,7547,7816,9058,10273,19152,23464,18455,22144,-130,-220,-15,-0.509804,-0.862745,-0.058824,1,255,e1970
2026-05-22T02:37:48.502+00:00,1779417468502761000,109,R,7547,7816,9057,10274,7547,7816,9057,10274,19152,23466,18457,22143,-129,-221,-15,-0.505882,-0.866667,-0.058824,1,255,f1970
2026-05-22T02:37:48.502+00:00,1779417468502777000,110,R,7555,7822,9067,10285,7555,7822,9067,10285,19165,23477,18461,22154,-126,-222,-14,-0.494118,-0.870588,-0.054902,1,255,72040
2026-05-22T02:37:48.502+00:00,1779417468502791000,111,R,7556,7825,9061,10288,7556,7825,9061,10288,19165,23477,18464,22158,-127,-221,-14,-0.498039,-0.866667,-0.054902,1,255,82040
2026-05-22T02:37:48.502+00:00,1779417468502804000,112,R,7555,7822,9065,10284,7555,7822,9065,10284,19167,23479,18464,22159,-127,-221,-14,-0.498039,-0.866667,-0.054902,1,255,92040
2026-05-22T02:37:48.651+00:00,1779417468651486000,113,R,7555,7819,9064,10280,7555,7819,9064,10280,19159,23475,18461,22160,-128,-223,-14,-0.501961,-0.87451,-0.054902,1,255,a2040
2026-05-22T02:37:48.651+00:00,1779417468651548000,114,R,7555,7818,9063,10277,7555,7818,9063,10277,19163,23475,18461,22153,-128,-222,-14,-0.501961,-0.870588,-0.054902,1,255,b2040
2026-05-22T02:37:48.651+00:00,1779417468651581000,115,R,7541,7805,9045,10255,7541,7805,9045,10255,19146,23450,18439,22121,-129,-219,-14,-0.505882,-0.858824,-0.054902,1,255,22100
2026-05-22T02:37:48.651+00:00,1779417468651608000,116,R,7539,7804,9045,10256,7539,7804,9045,10256,19141,23448,18439,22123,-130,-219,-14,-0.509804,-0.858824,-0.054902,1,255,32100
2026-05-22T02:37:48.651+00:00,1779417468651636000,117,R,7540,7800,9048,10254,7540,7800,9048,10254,19143,23447,18438,22123,-130,-219,-15,-0.509804,-0.858824,-0.058824,1,255,42100
2026-05-22T02:37:48.801+00:00,1779417468802037000,118,R,7538,7802,9044,10250,7538,7802,9044,10250,19141,23444,18438,22120,-129,-219,-16,-0.505882,-0.858824,-0.062745,1,255,52100
2026-05-22T02:37:48.802+00:00,1779417468802192000,119,R,7536,7804,9042,10251,7536,7804,9042,10251,19140,23440,18437,22118,-129,-220,-15,-0.505882,-0.862745,-0.058824,1,255,62100
2026-05-22T02:37:48.802+00:00,1779417468802270000,120,R,7533,7802,9040,10250,7533,7802,9040,10250,19133,23434,18436,22113,-128,-220,-15,-0.501961,-0.862745,-0.058824,1,255,f2180
2026-05-22T02:37:48.802+00:00,1779417468802337000,121,R,7534,7802,9037,10249,7534,7802,9037,10249,19134,23432,18438,22111,-127,-222,-15,-0.498039,-0.870588,-0.058824,1,255,02180
2026-05-22T02:37:48.802+00:00,1779417468802401000,122,R,7535,7802,9038,10249,7535,7802,9038,10249,19132,23435,18433,22113,-127,-222,-14,-0.498039,-0.870588,-0.054902,1,255,12180
2026-05-22T02:37:48.951+00:00,1779417468951966000,123,R,7534,7802,9038,10250,7534,7802,9038,10250,19132,23432,18433,22110,-127,-220,-14,-0.498039,-0.862745,-0.054902,1,255,22180
2026-05-22T02:37:48.952+00:00,1779417468952121000,124,R,7534,7800,9039,10252,7534,7800,9039,10252,19132,23434,18433,22113,-127,-221,-13,-0.498039,-0.866667,-0.05098,1,255,32180
2026-05-22T02:37:48.952+00:00,1779417468952196000,125,R,7535,7803,9042,10250,7535,7803,9042,10250,19134,23431,18438,22113,-128,-219,-13,-0.501961,-0.858824,-0.05098,1,255,42180
2026-05-22T02:37:48.952+00:00,1779417468952261000,126,R,7537,7803,9041,10254,7537,7803,9041,10254,19133,23436,18439,22119,-126,-221,-15,-0.494118,-0.866667,-0.058824,1,255,b2240
2026-05-22T02:37:48.952+00:00,1779417468952325000,127,R,7533,7804,9039,10255,7533,7804,9039,10255,19136,23436,18439,22115,-126,-221,-16,-0.494118,-0.866667,-0.062745,1,255,c2240
2026-05-22T02:37:49.101+00:00,1779417469101815000,128,R,7540,7804,9044,10258,7540,7804,9044,10258,19134,23436,18437,22118,-126,-222,-15,-0.494118,-0.870588,-0.058824,1,255,d2240
2026-05-22T02:37:49.101+00:00,1779417469101935000,129,R,7539,7808,9043,10254,7539,7808,9043,10254,19135,23437,18439,22119,-126,-223,-16,-0.494118,-0.87451,-0.062745,1,255,e2240
2026-05-22T02:37:49.102+00:00,1779417469102015000,130,R,7540,7807,9046,10260,7540,7807,9046,10260,19141,23439,18442,22125,-128,-223,-15,-0.501961,-0.87451,-0.058824,1,255,f2240
2026-05-22T02:37:49.102+00:00,1779417469102081000,131,R,7546,7816,9053,10267,7546,7816,9053,10267,19147,23450,18451,22133,-129,-220,-14,-0.505882,-0.862745,-0.054902,1,255,72310
2026-05-22T02:37:49.102+00:00,1779417469102144000,132,R,7545,7814,9052,10269,7545,7814,9052,10269,19150,23449,18451,22133,-127,-221,-15,-0.498039,-0.866667,-0.058824,1,255,82310
2026-05-22T02:37:49.102+00:00,1779417469102206000,133,R,7546,7813,9054,10272,7546,7813,9054,10272,19148,23450,18450,22134,-127,-220,-13,-0.498039,-0.862745,-0.05098,1,255,92310
2026-05-22T02:37:49.252+00:00,1779417469252594000,134,R,7549,7815,9055,10270,7549,7815,9055,10270,19148,23451,18451,22134,-126,-220,-14,-0.494118,-0.862745,-0.054902,1,255,a2310
2026-05-22T02:37:49.252+00:00,1779417469252745000,135,R,7549,7816,9054,10273,7549,7816,9054,10273,19150,23455,18454,22137,-127,-219,-13,-0.498039,-0.858824,-0.05098,1,255,b2310
2026-05-22T02:37:49.252+00:00,1779417469252821000,136,R,7556,7820,9060,10279,7556,7820,9060,10279,19156,23459,18455,22145,-120,-223,-16,-0.470588,-0.87451,-0.062745,1,255,12360
2026-05-22T02:37:49.252+00:00,1779417469252888000,137,R,7555,7821,9061,10280,7555,7821,9061,10280,19158,23459,18454,22147,-122,-223,-16,-0.478431,-0.87451,-0.062745,1,255,22360
2026-05-22T02:37:49.252+00:00,1779417469252952000,138,R,7554,7820,9062,10281,7554,7820,9062,10281,19165,23464,18455,22147,-123,-223,-15,-0.482353,-0.87451,-0.058824,1,255,32360
2026-05-22T02:37:49.402+00:00,1779417469402406000,139,R,7559,7821,9063,10282,7559,7821,9063,10282,19166,23464,18458,22150,-126,-223,-15,-0.494118,-0.87451,-0.058824,1,255,42360
2026-05-22T02:37:49.402+00:00,1779417469402509000,140,R,7559,7824,9062,10285,7559,7824,9062,10285,19166,23462,18457,22145,-127,-222,-16,-0.498039,-0.870588,-0.062745,1,255,52360
2026-05-22T02:37:49.402+00:00,1779417469402539000,141,R,7567,7824,9068,10288,7567,7824,9068,10288,19176,23471,18456,22155,-123,-223,-19,-0.482353,-0.87451,-0.07451,1,255,e2440
2026-05-22T02:37:49.402+00:00,1779417469402566000,142,R,7564,7823,9068,10285,7564,7823,9068,10285,19174,23470,18456,22150,-125,-222,-19,-0.490196,-0.870588,-0.07451,1,255,f2440
2026-05-22T02:37:49.402+00:00,1779417469402592000,143,R,7561,7816,9064,10281,7561,7816,9064,10281,19171,23469,18453,22144,-127,-222,-19,-0.498039,-0.870588,-0.07451,1,255,02440
2026-05-22T02:37:49.552+00:00,1779417469552535000,144,R,7559,7818,9062,10277,7559,7818,9062,10277,19163,23466,18447,22139,-127,-221,-20,-0.498039,-0.866667,-0.078431,1,255,12440
2026-05-22T02:37:49.552+00:00,1779417469552684000,145,R,7555,7813,9059,10269,7555,7813,9059,10269,19162,23460,18447,22134,-127,-222,-20,-0.498039,-0.870588,-0.078431,1,255,22440
2026-05-22T02:37:49.552+00:00,1779417469552757000,146,R,7546,7804,9049,10253,7546,7804,9049,10253,19140,23438,18426,22108,-127,-220,-22,-0.498039,-0.862745,-0.086275,1,255,a2510
2026-05-22T02:37:49.552+00:00,1779417469552824000,147,R,7546,7799,9046,10249,7546,7799,9046,10249,19142,23436,18423,22108,-126,-219,-23,-0.494118,-0.858824,-0.090196,1,255,b2510
2026-05-22T02:37:49.552+00:00,1779417469552888000,148,R,7543,7796,9044,10245,7543,7796,9044,10245,19141,23438,18421,22104,-125,-220,-24,-0.490196,-0.862745,-0.094118,1,255,c2510
2026-05-22T02:37:49.702+00:00,1779417469702737000,149,R,7543,7794,9043,10247,7543,7794,9043,10247,19138,23431,18421,22100,-123,-219,-24,-0.482353,-0.858824,-0.094118,1,255,d2510
2026-05-22T02:37:49.702+00:00,1779417469702899000,150,R,7543,7798,9043,10245,7543,7798,9043,10245,19136,23430,18417,22098,-123,-220,-25,-0.482353,-0.862745,-0.098039,1,255,e2510
2026-05-22T02:37:49.703+00:00,1779417469703261000,151,R,7544,7795,9041,10243,7544,7795,9041,10243,19139,23427,18416,22097,-119,-219,-24,-0.466667,-0.858824,-0.094118,1,255,f2510
2026-05-22T02:37:49.703+00:00,1779417469703338000,152,R,7555,7802,9026,10252,7555,7802,9026,10252,19175,23393,18418,22105,-130,-222,-24,-0.509804,-0.870588,-0.094118,1,255,62570
2026-05-22T02:37:49.703+00:00,1779417469703404000,153,R,7557,7797,9029,10253,7557,7797,9029,10253,19176,23389,18425,22108,-128,-223,-26,-0.501961,-0.87451,-0.101961,1,255,72570
2026-05-22T02:37:50.003+00:00,1779417470003250000,154,R,7560,7801,9028,10255,7560,7801,9028,10255,19180,23385,18421,22108,-126,-222,-29,-0.494118,-0.870588,-0.113725,1,255,82570
2026-05-22T02:37:50.003+00:00,1779417470003405000,155,R,7560,7801,9030,10254,7560,7801,9030,10254,19187,23384,18420,22109,-126,-222,-28,-0.494118,-0.870588,-0.109804,1,255,92570
2026-05-22T02:37:50.003+00:00,1779417470003478000,156,R,7564,7801,9032,10254,7564,7801,9032,10254,19187,23385,18423,22110,-125,-222,-31,-0.490196,-0.870588,-0.121569,1,255,a2570
2026-05-22T02:37:50.003+00:00,1779417470003544000,157,R,7636,7829,9092,10287,7636,7829,9092,10287,19303,23458,18455,22142,-132,-218,-32,-0.517647,-0.854902,-0.12549,1,255,22640
2026-05-22T02:37:50.003+00:00,1779417470003608000,158,R,7652,7832,9100,10297,7652,7832,9100,10297,19338,23466,18461,22157,-133,-221,-32,-0.521569,-0.866667,-0.12549,1,255,32640
2026-05-22T02:37:50.003+00:00,1779417470003671000,159,R,7672,7837,9113,10305,7672,7837,9113,10305,19365,23488,18463,22169,-132,-219,-32,-0.517647,-0.858824,-0.12549,1,255,42640
2026-05-22T02:37:50.151+00:00,1779417470151880000,160,R,7685,7837,9120,10312,7685,7837,9120,10312,19389,23494,18462,22178,-130,-219,-32,-0.509804,-0.858824,-0.12549,1,255,52640
2026-05-22T02:37:50.152+00:00,1779417470152032000,161,R,7693,7838,9126,10316,7693,7838,9126,10316,19409,23500,18465,22189,-129,-219,-32,-0.505882,-0.858824,-0.12549,1,255,62640
2026-05-22T02:37:50.152+00:00,1779417470152106000,162,R,7635,7851,9106,10305,7635,7851,9106,10305,19312,23485,18494,22155,-126,-221,-30,-0.494118,-0.866667,-0.117647,1,255,e2710
2026-05-22T02:37:50.152+00:00,1779417470152173000,163,R,7620,7853,9099,10301,7620,7853,9099,10301,19282,23483,18493,22154,-128,-215,-32,-0.501961,-0.843137,-0.12549,1,255,f2710
2026-05-22T02:37:50.152+00:00,1779417470152236000,164,R,7606,7851,9093,10300,7606,7851,9093,10300,19259,23478,18496,22149,-129,-215,-31,-0.505882,-0.843137,-0.121569,1,255,02710
2026-05-22T02:37:50.301+00:00,1779417470301557000,165,R,7597,7852,9088,10299,7597,7852,9088,10299,19237,23473,18492,22143,-128,-215,-29,-0.501961,-0.843137,-0.113725,1,255,12710
2026-05-22T02:37:50.301+00:00,1779417470301606000,166,R,7587,7849,9085,10295,7587,7849,9085,10295,19217,23472,18492,22144,-121,-221,-27,-0.47451,-0.866667,-0.105882,1,255,22710
2026-05-22T02:37:50.301+00:00,1779417470301622000,167,R,7564,7833,9084,10304,7564,7833,9084,10304,19170,23484,18463,22162,-134,-216,-32,-0.52549,-0.847059,-0.12549,1,255,92770
2026-05-22T02:37:50.301+00:00,1779417470301635000,168,R,7566,7831,9090,10306,7566,7831,9090,10306,19171,23487,18458,22161,-132,-218,-31,-0.517647,-0.854902,-0.121569,1,255,a2770
2026-05-22T02:37:50.301+00:00,1779417470301648000,169,R,7572,7831,9088,10310,7572,7831,9088,10310,19178,23491,18457,22164,-131,-220,-32,-0.513725,-0.862745,-0.12549,1,255,b2770
2026-05-22T02:37:50.451+00:00,1779417470451436000,170,R,7576,7831,9089,10309,7576,7831,9089,10309,19183,23486,18454,22164,-126,-222,-30,-0.494118,-0.870588,-0.117647,1,255,c2770
2026-05-22T02:37:50.451+00:00,1779417470451496000,171,R,7582,7831,9092,10311,7582,7831,9092,10311,19191,23493,18453,22172,-126,-223,-30,-0.494118,-0.87451,-0.117647,1,255,d2770
2026-05-22T02:37:50.451+00:00,1779417470451529000,172,R,7593,7828,9095,10307,7593,7828,9095,10307,19211,23481,18449,22167,-128,-220,-28,-0.501961,-0.862745,-0.109804,0,79,62850
2026-05-22T02:37:50.451+00:00,1779417470451552000,173,R,7591,7828,9089,10307,7591,7828,9089,10307,19212,23479,18442,22161,-128,-221,-28,-0.501961,-0.866667,-0.109804,0,79,72850
2026-05-22T02:37:50.451+00:00,1779417470451573000,174,R,7587,7820,9088,10296,7587,7820,9088,10296,19205,23473,18442,22159,-127,-220,-27,-0.498039,-0.862745,-0.105882,0,79,82850
2026-05-22T02:37:50.601+00:00,1779417470601924000,175,R,7589,7821,9084,10295,7589,7821,9084,10295,19204,23470,18434,22150,-126,-219,-28,-0.494118,-0.858824,-0.109804,0,79,92850
2026-05-22T02:37:50.601+00:00,1779417470601971000,176,R,7586,7816,9081,10292,7586,7816,9081,10292,19201,23468,18432,22146,-126,-219,-27,-0.494118,-0.858824,-0.105882,0,79,a2850
2026-05-22T02:37:50.601+00:00,1779417470601993000,177,R,7585,7815,9082,10287,7585,7815,9082,10287,19203,23466,18427,22144,-123,-218,-28,-0.482353,-0.854902,-0.109804,0,79,b2850
2026-05-22T02:37:50.602+00:00,1779417470602013000,178,R,7578,7803,9077,10277,7578,7803,9077,10277,19187,23464,18409,22126,-128,-219,-25,-0.501961,-0.858824,-0.098039,0,79,12900
2026-05-22T02:37:50.602+00:00,1779417470602032000,179,R,7575,7800,9075,10273,7575,7800,9075,10273,19187,23461,18406,22126,-130,-219,-25,-0.509804,-0.858824,-0.098039,0,79,22900
2026-05-22T02:37:50.602+00:00,1779417470602048000,180,R,7576,7802,9079,10283,7576,7802,9079,10283,19184,23459,18406,22121,-130,-218,-25,-0.509804,-0.854902,-0.098039,0,79,32900
2026-05-22T02:37:50.753+00:00,1779417470753353000,181,R,7571,7799,9074,10273,7571,7799,9074,10273,19186,23454,18400,22120,-130,-220,-24,-0.509804,-0.862745,-0.094118,0,79,42900
2026-05-22T02:37:50.753+00:00,1779417470753538000,182,R,7573,7798,9073,10271,7573,7798,9073,10271,19180,23455,18403,22118,-130,-221,-24,-0.509804,-0.866667,-0.094118,0,79,52900
2026-05-22T02:37:50.753+00:00,1779417470753614000,183,R,7571,7796,9072,10267,7571,7796,9072,10267,19182,23453,18403,22118,-129,-221,-23,-0.505882,-0.866667,-0.090196,0,79,c2960
2026-05-22T02:37:50.753+00:00,1779417470753682000,184,R,7571,7799,9072,10266,7571,7799,9072,10266,19177,23449,18404,22112,-129,-220,-22,-0.505882,-0.862745,-0.086275,0,79,d2960
2026-05-22T02:37:50.753+00:00,1779417470753747000,185,R,7574,7800,9071,10268,7574,7800,9071,10268,19178,23451,18405,22115,-129,-220,-23,-0.505882,-0.862745,-0.090196,0,79,e2960
2026-05-22T02:37:50.902+00:00,1779417470902392000,186,R,7575,7797,9078,10268,7575,7797,9078,10268,19176,23449,18402,22112,-128,-220,-24,-0.501961,-0.862745,-0.094118,0,79,f2960
2026-05-22T02:37:50.902+00:00,1779417470902531000,187,R,7570,7800,9071,10268,7570,7800,9071,10268,19171,23447,18404,22110,-127,-219,-24,-0.498039,-0.858824,-0.094118,0,79,02960
2026-05-22T02:37:50.902+00:00,1779417470902615000,188,R,7571,7810,9072,10275,7571,7810,9072,10275,19172,23451,18421,22119,-129,-220,-25,-0.505882,-0.862745,-0.098039,0,79,a3050
2026-05-22T02:37:50.902+00:00,1779417470902681000,189,R,7567,7810,9069,10275,7567,7810,9069,10275,19174,23452,18423,22120,-130,-219,-25,-0.509804,-0.858824,-0.098039,0,79,b3050
2026-05-22T02:37:50.902+00:00,1779417470902746000,190,R,7572,7811,9075,10276,7572,7811,9075,10276,19172,23456,18423,22117,-129,-219,-26,-0.505882,-0.858824,-0.101961,0,79,c3050
2026-05-22T02:37:51.051+00:00,1779417471051837000,191,R,7572,7813,9073,10277,7572,7813,9073,10277,19174,23453,18423,22119,-127,-219,-26,-0.498039,-0.858824,-0.101961,0,79,d3050
2026-05-22T02:37:51.051+00:00,1779417471051983000,192,R,7572,7815,9074,10277,7572,7815,9074,10277,19173,23454,18422,22122,-127,-219,-26,-0.498039,-0.858824,-0.101961,0,79,e3050
2026-05-22T02:37:51.052+00:00,1779417471052058000,193,R,7573,7813,9077,10279,7573,7813,9077,10279,19175,23456,18425,22123,-128,-220,-26,-0.501961,-0.862745,-0.101961,0,79,f3050
2026-05-22T02:37:51.052+00:00,1779417471052149000,194,R,7575,7822,9078,10287,7575,7822,9078,10287,19180,23459,18430,22130,-128,-220,-24,-0.501961,-0.862745,-0.094118,0,78,63110
2026-05-22T02:37:51.052+00:00,1779417471052229000,195,R,7581,7819,9083,10290,7581,7819,9083,10290,19179,23461,18432,22135,-129,-218,-24,-0.505882,-0.854902,-0.094118,0,78,73110
2026-05-22T02:37:51.201+00:00,1779417471201991000,196,R,7577,7823,9082,10288,7577,7823,9082,10288,19181,23461,18432,22133,-129,-219,-25,-0.505882,-0.858824,-0.098039,0,78,83110
2026-05-22T02:37:51.202+00:00,1779417471202372000,197,R,7580,7824,9083,10289,7580,7824,9083,10289,19181,23465,18435,22133,-128,-220,-24,-0.501961,-0.862745,-0.094118,0,78,93110
2026-05-22T02:37:51.202+00:00,1779417471202456000,198,R,7580,7822,9081,10291,7580,7822,9081,10291,19184,23462,18435,22138,-127,-221,-25,-0.498039,-0.866667,-0.098039,0,78,a3110
2026-05-22T02:37:51.202+00:00,1779417471202524000,199,R,7584,7830,9089,10304,7584,7830,9089,10304,19189,23470,18442,22147,-129,-219,-24,-0.505882,-0.858824,-0.094118,0,78,23180
2026-05-22T02:37:51.202+00:00,1779417471202589000,200,R,7592,7830,9099,10305,7592,7830,9099,10305,19189,23477,18445,22148,-130,-219,-24,-0.509804,-0.858824,-0.094118,0,78,33180
2026-05-22T02:37:51.202+00:00,1779417471202652000,201,R,7585,7832,9093,10303,7585,7832,9093,10303,19192,23478,18446,22148,-130,-220,-24,-0.509804,-0.862745,-0.094118,0,78,43180
2026-05-22T02:37:51.501+00:00,1779417471502017000,202,R,7587,7833,9091,10307,7587,7833,9091,10307,19194,23482,18446,22147,-130,-219,-24,-0.509804,-0.858824,-0.094118,0,78,53180
2026-05-22T02:37:51.502+00:00,1779417471502165000,203,R,7588,7835,9092,10308,7588,7835,9092,10308,19193,23481,18447,22153,-127,-222,-24,-0.498039,-0.870588,-0.094118,0,78,63180
2026-05-22T02:37:51.502+00:00,1779417471502239000,204,R,7580,7823,9083,10290,7580,7823,9083,10290,19185,23464,18439,22136,-130,-220,-25,-0.509804,-0.862745,-0.098039,0,78,e3250
2026-05-22T02:37:51.502+00:00,1779417471502306000,205,R,7574,7817,9078,10283,7574,7817,9078,10283,19182,23466,18432,22130,-129,-219,-25,-0.505882,-0.858824,-0.098039,0,78,f3250
2026-05-22T02:37:51.502+00:00,1779417471502371000,206,R,7579,7821,9082,10288,7579,7821,9082,10288,19179,23463,18430,22124,-128,-219,-26,-0.501961,-0.858824,-0.101961,0,78,03250
2026-05-22T02:37:51.799+00:00,1779417471799179000,207,R,7575,7817,9078,10281,7575,7817,9078,10281,19180,23460,18427,22124,-128,-221,-25,-0.501961,-0.866667,-0.098039,0,78,13250
2026-05-22T02:37:51.799+00:00,1779417471799292000,208,R,7577,7818,9079,10281,7577,7818,9079,10281,19178,23458,18427,22121,-126,-220,-25,-0.494118,-0.862745,-0.098039,0,78,23250
2026-05-22T02:37:51.799+00:00,1779417471799362000,209,R,7565,7812,9068,10268,7565,7812,9068,10268,19163,23444,18419,22102,-127,-220,-25,-0.498039,-0.862745,-0.098039,0,78,a3320
2026-05-22T02:37:51.799+00:00,1779417471799425000,210,R,7571,7814,9069,10270,7571,7814,9069,10270,19156,23438,18416,22100,-128,-220,-25,-0.501961,-0.862745,-0.098039,0,78,b3320
2026-05-22T02:37:51.799+00:00,1779417471799488000,211,R,7565,7813,9067,10269,7565,7813,9067,10269,19162,23440,18418,22103,-127,-222,-24,-0.498039,-0.870588,-0.094118,0,78,c3320
2026-05-22T02:37:52.099+00:00,1779417472099138000,212,R,7566,7811,9068,10269,7566,7811,9068,10269,19161,23439,18421,22102,-127,-222,-25,-0.498039,-0.870588,-0.098039,0,78,d3320
2026-05-22T02:37:52.099+00:00,1779417472099177000,213,R,7568,7814,9067,10270,7568,7814,9067,10270,19164,23435,18419,22103,-126,-219,-26,-0.494118,-0.858824,-0.101961,0,78,e3320
2026-05-22T02:37:52.099+00:00,1779417472099194000,214,R,7569,7816,9067,10270,7569,7816,9067,10270,19166,23436,18424,22103,-127,-218,-25,-0.498039,-0.854902,-0.098039,0,78,f3320
2026-05-22T02:37:52.099+00:00,1779417472099209000,215,R,7581,7821,9069,10269,7581,7821,9069,10269,19189,23433,18428,22099,-125,-217,-25,-0.490196,-0.85098,-0.098039,0,78,53370
2026-05-22T02:37:52.099+00:00,1779417472099223000,216,R,7580,7823,9068,10269,7580,7823,9068,10269,19194,23431,18431,22099,-125,-218,-23,-0.490196,-0.854902,-0.090196,0,78,63370
2026-05-22T02:37:52.250+00:00,1779417472251012000,217,R,7585,7826,9072,10270,7585,7826,9072,10270,19202,23436,18434,22101,-126,-218,-26,-0.494118,-0.854902,-0.101961,0,78,73370
2026-05-22T02:37:52.251+00:00,1779417472251160000,218,R,7588,7825,9077,10273,7588,7825,9077,10273,19210,23436,18437,22101,-125,-220,-25,-0.490196,-0.862745,-0.098039,0,78,83370
2026-05-22T02:37:52.251+00:00,1779417472251233000,219,R,7594,7832,9077,10276,7594,7832,9077,10276,19218,23434,18441,22102,-129,-218,-27,-0.505882,-0.854902,-0.105882,0,78,93370
2026-05-22T02:37:52.251+00:00,1779417472251298000,220,R,7626,7850,9097,10297,7626,7850,9097,10297,19275,23451,18462,22123,-130,-218,-28,-0.509804,-0.854902,-0.109804,0,78,13440
2026-05-22T02:37:52.251+00:00,1779417472251362000,221,R,7628,7851,9102,10300,7628,7851,9102,10300,19278,23450,18466,22127,-130,-217,-29,-0.509804,-0.85098,-0.113725,0,78,23440
2026-05-22T02:37:52.251+00:00,1779417472251424000,222,R,7629,7852,9101,10301,7629,7852,9101,10301,19277,23453,18469,22127,-132,-218,-28,-0.517647,-0.854902,-0.109804,0,78,33440
2026-05-22T02:37:52.549+00:00,1779417472549955000,223,R,7627,7854,9101,10305,7627,7854,9101,10305,19278,23460,18472,22132,-132,-220,-26,-0.517647,-0.862745,-0.101961,0,78,43440
2026-05-22T02:37:52.550+00:00,1779417472550107000,224,R,7628,7851,9102,10302,7628,7851,9102,10302,19276,23461,18469,22131,-133,-217,-28,-0.521569,-0.85098,-0.109804,0,78,53440
2026-05-22T02:37:52.550+00:00,1779417472550185000,225,R,7562,7841,9085,10301,7562,7841,9085,10301,19149,23466,18465,22130,-131,-219,-25,-0.513725,-0.858824,-0.098039,0,78,d3510
2026-05-22T02:37:52.550+00:00,1779417472550694000,226,R,7563,7839,9088,10296,7563,7839,9088,10296,19151,23466,18458,22131,-120,-203,-29,-0.470588,-0.796078,-0.113725,0,78,e3510
2026-05-22T02:37:52.550+00:00,1779417472550793000,227,R,7568,7835,9090,10301,7568,7835,9090,10301,19157,23468,18451,22129,-131,-211,-23,-0.513725,-0.827451,-0.090196,0,78,f3510
2026-05-22T02:37:52.552+00:00,1779417472552393000,228,R,7573,7839,9087,10303,7573,7839,9087,10303,19161,23466,18454,22135,-139,-216,-20,-0.545098,-0.847059,-0.078431,0,78,03510
2026-05-22T02:37:52.552+00:00,1779417472552475000,229,R,7575,7839,9092,10305,7575,7839,9092,10305,19167,23467,18453,22141,-137,-218,-21,-0.537255,-0.854902,-0.082353,0,78,13510
2026-05-22T02:37:52.552+00:00,1779417472552543000,230,R,7597,7837,9107,10317,7597,7837,9107,10317,19201,23477,18440,22157,-128,-218,-22,-0.501961,-0.854902,-0.086275,0,78,93580
2026-05-22T02:37:52.552+00:00,1779417472552606000,231,R,7601,7836,9105,10319,7601,7836,9105,10319,19205,23478,18441,22161,-130,-218,-21,-0.509804,-0.854902,-0.082353,0,78,a3580
2026-05-22T02:37:52.552+00:00,1779417472552669000,232,R,7603,7837,9108,10323,7603,7837,9108,10323,19209,23485,18439,22164,-135,-220,-19,-0.529412,-0.862745,-0.07451,0,78,b3580
2026-05-22T02:37:52.848+00:00,1779417472848928000,233,R,7600,7834,9110,10322,7600,7834,9110,10322,19204,23485,18438,22164,-133,-219,-22,-0.521569,-0.858824,-0.086275,0,78,c3580
2026-05-22T02:37:52.849+00:00,1779417472849037000,234,R,7603,7831,9111,10325,7603,7831,9111,10325,19207,23488,18430,22165,-128,-221,-22,-0.501961,-0.866667,-0.086275,0,78,d3580
2026-05-22T02:37:52.849+00:00,1779417472849091000,235,R,7601,7828,9109,10316,7601,7828,9109,10316,19206,23490,18426,22163,-127,-221,-22,-0.498039,-0.866667,-0.086275,0,78,e3580
2026-05-22T02:37:52.849+00:00,1779417472849139000,236,R,7580,7814,9090,10286,7580,7814,9090,10286,19173,23467,18404,22122,-127,-220,-22,-0.498039,-0.862745,-0.086275,0,78,43630
2026-05-22T02:37:52.849+00:00,1779417472849185000,237,R,7577,7812,9089,10283,7577,7812,9089,10283,19170,23463,18409,22117,-128,-218,-21,-0.501961,-0.854902,-0.082353,0,78,53630
2026-05-22T02:37:52.999+00:00,1779417472999775000,238,R,7577,7813,9087,10283,7577,7813,9087,10283,19166,23461,18403,22115,-130,-217,-22,-0.509804,-0.85098,-0.086275,0,78,63630
2026-05-22T02:37:52.999+00:00,1779417472999923000,239,R,7574,7813,9086,10282,7574,7813,9086,10282,19166,23461,18402,22111,-131,-220,-21,-0.513725,-0.862745,-0.082353,0,78,73630
2026-05-22T02:37:52.999+00:00,1779417472999996000,240,R,7574,7809,9088,10281,7574,7809,9088,10281,19162,23454,18402,22112,-129,-219,-21,-0.505882,-0.858824,-0.082353,0,78,83630
2026-05-22T02:37:53.000+00:00,1779417473000061000,241,R,7567,7810,9079,10275,7567,7810,9079,10275,19148,23445,18402,22105,-122,-222,-23,-0.478431,-0.870588,-0.090196,0,78,13710
2026-05-22T02:37:53.000+00:00,1779417473000123000,242,R,7563,7811,9081,10277,7563,7811,9081,10277,19144,23451,18405,22102,-126,-226,-21,-0.494118,-0.886275,-0.082353,0,78,23710
2026-05-22T02:37:53.000+00:00,1779417473000186000,243,R,7558,7818,9082,10279,7558,7818,9082,10279,19132,23454,18409,22105,-124,-224,-22,-0.486275,-0.878431,-0.086275,0,78,33710
2026-05-22T02:37:53.151+00:00,1779417473151813000,244,R,7550,7817,9083,10280,7550,7817,9083,10280,19127,23459,18417,22106,-125,-222,-22,-0.490196,-0.870588,-0.086275,0,78,43710
2026-05-22T02:37:53.151+00:00,1779417473151962000,245,R,7550,7816,9084,10282,7550,7816,9084,10282,19123,23461,18417,22105,-128,-216,-22,-0.501961,-0.847059,-0.086275,0,78,53710
2026-05-22T02:37:53.152+00:00,1779417473152040000,246,R,7532,7830,9071,10288,7532,7830,9071,10288,19091,23454,18436,22105,-124,-219,-24,-0.486275,-0.858824,-0.094118,0,78,d3780
2026-05-22T02:37:53.152+00:00,1779417473152108000,247,R,7532,7834,9072,10287,7532,7834,9072,10287,19095,23459,18440,22111,-125,-221,-24,-0.490196,-0.866667,-0.094118,0,78,e3780
2026-05-22T02:37:53.152+00:00,1779417473152171000,248,R,7534,7833,9074,10287,7534,7833,9074,10287,19101,23455,18445,22110,-123,-220,-24,-0.482353,-0.862745,-0.094118,0,78,f3780
2026-05-22T02:37:53.301+00:00,1779417473301933000,249,R,7539,7835,9075,10287,7539,7835,9075,10287,19104,23458,18444,22105,-127,-219,-24,-0.498039,-0.858824,-0.094118,0,78,03780
2026-05-22T02:37:53.302+00:00,1779417473302073000,250,R,7541,7835,9077,10286,7541,7835,9077,10286,19113,23460,18441,22103,-130,-220,-23,-0.509804,-0.862745,-0.090196,0,78,13780
2026-05-22T02:37:53.302+00:00,1779417473302149000,251,R,7597,7843,9108,10297,7597,7843,9108,10297,19207,23495,18443,22107,-130,-215,-24,-0.509804,-0.843137,-0.094118,0,78,83840
2026-05-22T02:37:53.302+00:00,1779417473302214000,252,R,7614,7850,9119,10302,7614,7850,9119,10302,19244,23504,18451,22114,-135,-223,-25,-0.529412,-0.87451,-0.098039,0,78,93840
2026-05-22T02:37:53.302+00:00,1779417473302279000,253,R,7630,7856,9132,10308,7630,7856,9132,10308,19275,23519,18458,22121,-133,-218,-25,-0.521569,-0.854902,-0.098039,0,78,a3840
2026-05-22T02:37:53.451+00:00,1779417473451958000,254,R,7647,7859,9138,10312,7647,7859,9138,10312,19306,23532,18462,22130,-130,-221,-26,-0.509804,-0.866667,-0.101961,0,78,b3840
2026-05-22T02:37:53.452+00:00,1779417473452102000,255,R,7663,7861,9149,10317,7663,7861,9149,10317,19335,23540,18461,22139,-130,-220,-27,-0.509804,-0.862745,-0.105882,0,78,c3840
2026-05-22T02:37:53.452+00:00,1779417473452176000,256,R,7675,7860,9161,10322,7675,7860,9161,10322,19359,23552,18463,22152,-132,-213,-29,-0.517647,-0.835294,-0.113725,0,78,d3840
2026-05-22T02:37:53.452+00:00,1779417473452243000,257,R,7692,7875,9161,10343,7692,7875,9161,10343,19397,23533,18482,22186,-124,-220,-27,-0.486275,-0.862745,-0.105882,0,78,43900
2026-05-22T02:37:53.452+00:00,1779417473452307000,258,R,7657,7878,9140,10335,7657,7878,9140,10335,19338,23513,18491,22167,-135,-230,-27,-0.529412,-0.901961,-0.105882,0,77,53900
2026-05-22T02:37:53.602+00:00,1779417473602442000,259,R,7633,7878,9125,10335,7633,7878,9125,10335,19285,23493,18500,22164,-128,-222,-26,-0.501961,-0.870588,-0.101961,0,77,63900
2026-05-22T02:37:53.602+00:00,1779417473602589000,260,R,7624,7870,9117,10333,7624,7870,9117,10333,19258,23486,18490,22165,-128,-216,-24,-0.501961,-0.847059,-0.094118,0,77,73900
2026-05-22T02:37:53.602+00:00,1779417473602665000,261,R,7611,7865,9110,10328,7611,7865,9110,10328,19235,23475,18484,22166,-128,-216,-25,-0.501961,-0.847059,-0.098039,0,77,83900
2026-05-22T02:37:53.602+00:00,1779417473602731000,262,R,7596,7849,9116,10331,7596,7849,9116,10331,19189,23495,18451,22169,-124,-221,-24,-0.486275,-0.866667,-0.094118,0,77,13980
2026-05-22T02:37:53.602+00:00,1779417473602795000,263,R,7598,7846,9117,10330,7598,7846,9117,10330,19190,23491,18447,22167,-126,-223,-24,-0.494118,-0.87451,-0.094118,0,77,23980
2026-05-22T02:37:53.602+00:00,1779417473602858000,264,R,7597,7841,9111,10322,7597,7841,9111,10322,19195,23490,18445,22162,-128,-221,-24,-0.501961,-0.866667,-0.094118,0,77,33980
2026-05-22T02:37:53.902+00:00,1779417473902166000,265,R,7599,7838,9109,10320,7599,7838,9109,10320,19189,23483,18440,22156,-128,-222,-25,-0.501961,-0.870588,-0.098039,0,77,43980
2026-05-22T02:37:53.902+00:00,1779417473902323000,266,R,7595,7834,9107,10315,7595,7834,9107,10315,19191,23480,18433,22151,-130,-218,-23,-0.509804,-0.854902,-0.090196,0,77,53980
2026-05-22T02:37:53.902+00:00,1779417473902398000,267,R,7586,7816,9100,10301,7586,7816,9100,10301,19180,23472,18402,22137,-129,-219,-24,-0.505882,-0.858824,-0.094118,0,77,d4050
2026-05-22T02:37:53.902+00:00,1779417473902464000,268,R,7581,7812,9103,10292,7581,7812,9103,10292,19173,23470,18400,22127,-131,-214,-25,-0.513725,-0.839216,-0.098039,0,77,e4050
2026-05-22T02:37:53.902+00:00,1779417473902526000,269,R,7582,7813,9098,10294,7582,7813,9098,10294,19167,23468,18395,22125,-127,-220,-23,-0.498039,-0.862745,-0.090196,0,77,f4050
2026-05-22T02:37:54.051+00:00,1779417474051032000,270,R,7579,7810,9096,10292,7579,7810,9096,10292,19164,23464,18395,22120,-128,-219,-24,-0.501961,-0.858824,-0.094118,0,77,04050
2026-05-22T02:37:54.051+00:00,1779417474051143000,271,R,7575,7808,9095,10289,7575,7808,9095,10289,19163,23462,18393,22119,-129,-220,-24,-0.505882,-0.862745,-0.094118,0,77,14050
2026-05-22T02:37:54.051+00:00,1779417474051217000,272,R,7577,7811,9094,10287,7577,7811,9094,10287,19160,23457,18392,22114,-129,-222,-21,-0.505882,-0.870588,-0.082353,0,77,94120
2026-05-22T02:37:54.051+00:00,1779417474051443000,273,R,7568,7808,9083,10281,7568,7808,9083,10281,19159,23460,18393,22117,-126,-222,-22,-0.494118,-0.870588,-0.086275,0,77,a4120
2026-05-22T02:37:54.051+00:00,1779417474051527000,274,R,7575,7810,9094,10289,7575,7810,9094,10289,19161,23459,18391,22112,-128,-220,-22,-0.501961,-0.862745,-0.086275,0,77,b4120
2026-05-22T02:37:54.347+00:00,1779417474347509000,275,R,7573,7810,9091,10287,7573,7810,9091,10287,19158,23457,18396,22116,-129,-217,-22,-0.505882,-0.85098,-0.086275,0,77,c4120
2026-05-22T02:37:54.347+00:00,1779417474347673000,276,R,7575,7811,9090,10287,7575,7811,9090,10287,19156,23455,18392,22111,-124,-219,-23,-0.486275,-0.858824,-0.090196,0,77,d4120
2026-05-22T02:37:54.347+00:00,1779417474347749000,277,R,7572,7812,9089,10286,7572,7812,9089,10286,19151,23451,18395,22113,-127,-220,-21,-0.498039,-0.862745,-0.082353,0,77,e4120
2026-05-22T02:37:54.347+00:00,1779417474347814000,278,R,7559,7817,9087,10292,7559,7817,9087,10292,19133,23451,18409,22115,-128,-218,-23,-0.501961,-0.854902,-0.090196,0,77,54180
2026-05-22T02:37:54.347+00:00,1779417474347877000,279,R,7561,7820,9087,10293,7561,7820,9087,10293,19131,23446,18409,22119,-128,-220,-23,-0.501961,-0.862745,-0.090196,0,77,64180
2026-05-22T02:37:54.347+00:00,1779417474347946000,280,R,7559,7822,9082,10295,7559,7822,9082,10295,19128,23439,18416,22121,-129,-221,-24,-0.505882,-0.866667,-0.094118,0,77,74180
2026-05-22T02:37:54.353+00:00,1779417474353994000,281,R,7554,7826,9080,10299,7554,7826,9080,10299,19124,23441,18420,22122,-128,-220,-23,-0.501961,-0.862745,-0.090196,0,77,84180
2026-05-22T02:37:54.354+00:00,1779417474354073000,282,R,7552,7828,9075,10299,7552,7828,9075,10299,19122,23435,18422,22122,-127,-220,-24,-0.498039,-0.862745,-0.094118,0,77,94180
2026-05-22T02:37:54.354+00:00,1779417474354138000,283,R,7560,7832,9022,10324,7560,7832,9022,10324,19130,23332,18434,22191,-129,-219,-23,-0.505882,-0.858824,-0.090196,0,77,f4230
2026-05-22T02:37:54.354+00:00,1779417474354201000,284,R,7563,7831,9015,10328,7563,7831,9015,10328,19137,23321,18431,22206,-127,-220,-23,-0.498039,-0.862745,-0.090196,0,77,04230
2026-05-22T02:37:54.354+00:00,1779417474354263000,285,R,7563,7828,9010,10335,7563,7828,9010,10335,19137,23309,18429,22217,-126,-222,-23,-0.494118,-0.870588,-0.090196,0,77,14230
2026-05-22T02:37:54.501+00:00,1779417474501867000,286,R,7563,7827,9009,10335,7563,7827,9009,10335,19139,23298,18426,22229,-127,-220,-24,-0.498039,-0.862745,-0.094118,0,77,24230
2026-05-22T02:37:54.502+00:00,1779417474502017000,287,R,7572,7827,9008,10344,7572,7827,9008,10344,19145,23296,18425,22234,-128,-220,-25,-0.501961,-0.862745,-0.098039,0,77,34230
2026-05-22T02:37:54.502+00:00,1779417474502091000,288,R,7590,7825,9081,10330,7590,7825,9081,10330,19172,23421,18407,22182,-128,-218,-25,-0.501961,-0.854902,-0.098039,0,77,d4320
2026-05-22T02:37:54.502+00:00,1779417474502158000,289,R,7589,7824,9084,10324,7589,7824,9084,10324,19179,23436,18411,22181,-131,-217,-23,-0.513725,-0.85098,-0.090196,0,77,e4320
2026-05-22T02:37:54.502+00:00,1779417474502223000,290,R,7593,7828,9095,10330,7593,7828,9095,10330,19181,23446,18411,22176,-131,-217,-22,-0.513725,-0.85098,-0.086275,0,77,f4320
2026-05-22T02:37:54.651+00:00,1779417474651946000,291,R,7594,7828,9099,10333,7594,7828,9099,10333,19183,23455,18414,22177,-148,-219,-23,-0.580392,-0.858824,-0.090196,0,77,04320
2026-05-22T02:37:54.652+00:00,1779417474652083000,292,R,7595,7832,9101,10333,7595,7832,9101,10333,19183,23461,18418,22179,-128,-220,-23,-0.501961,-0.862745,-0.090196,0,77,14320
2026-05-22T02:37:54.652+00:00,1779417474652157000,293,R,7595,7828,9101,10332,7595,7828,9101,10332,19182,23460,18416,22175,-125,-221,-23,-0.490196,-0.866667,-0.090196,0,77,24320
2026-05-22T02:37:54.652+00:00,1779417474652222000,294,R,7584,7808,9092,10300,7584,7808,9092,10300,19172,23449,18385,22137,-134,-219,-21,-0.52549,-0.858824,-0.082353,0,77,94380
2026-05-22T02:37:54.652+00:00,1779417474652285000,295,R,7580,7808,9088,10300,7580,7808,9088,10300,19167,23448,18388,22135,-134,-216,-22,-0.52549,-0.847059,-0.086275,0,77,a4380
2026-05-22T02:37:54.803+00:00,1779417474803131000,296,R,7577,7807,9085,10295,7577,7807,9085,10295,19163,23446,18381,22133,-134,-218,-21,-0.52549,-0.854902,-0.082353,0,77,b4380
2026-05-22T02:37:54.803+00:00,1779417474803271000,297,R,7568,7805,9081,10293,7568,7805,9081,10293,19156,23442,18388,22133,-136,-219,-20,-0.533333,-0.858824,-0.078431,0,77,c4380
2026-05-22T02:37:54.803+00:00,1779417474803346000,298,R,7568,7806,9079,10293,7568,7806,9079,10293,19151,23438,18381,22132,-134,-219,-21,-0.52549,-0.858824,-0.082353,0,77,d4380
2026-05-22T02:37:54.803+00:00,1779417474803412000,299,R,7555,7797,9071,10282,7555,7797,9071,10282,19129,23428,18375,22115,-129,-218,-24,-0.505882,-0.854902,-0.094118,0,77,44440
2026-05-22T02:37:54.803+00:00,1779417474803476000,300,R,7555,7799,9072,10283,7555,7799,9072,10283,19133,23424,18374,22110,-131,-217,-23,-0.513725,-0.85098,-0.090196,0,77,54440
2026-05-22T02:37:54.803+00:00,1779417474803804000,301,R,7556,7803,9072,10282,7556,7803,9072,10282,19128,23426,18379,22113,-134,-220,-21,-0.52549,-0.862745,-0.082353,0,77,64440
2026-05-22T02:37:54.951+00:00,1779417474951403000,302,R,7555,7804,9074,10284,7555,7804,9074,10284,19127,23425,18379,22109,-136,-219,-22,-0.533333,-0.858824,-0.086275,0,77,74440
2026-05-22T02:37:54.951+00:00,1779417474951461000,303,R,7558,7807,9075,10286,7558,7807,9075,10286,19130,23426,18384,22111,-133,-216,-24,-0.521569,-0.847059,-0.094118,0,77,84440
2026-05-22T02:37:54.951+00:00,1779417474951494000,304,R,7561,7814,9074,10284,7561,7814,9074,10284,19138,23430,18398,22109,-135,-215,-23,-0.529412,-0.843137,-0.090196,0,77,04510
2026-05-22T02:37:54.951+00:00,1779417474951523000,305,R,7559,7814,9076,10284,7559,7814,9076,10284,19133,23429,18400,22107,-130,-217,-24,-0.509804,-0.85098,-0.094118,0,77,14510
2026-05-22T02:37:54.951+00:00,1779417474951550000,306,R,7561,7814,9076,10284,7561,7814,9076,10284,19140,23425,18399,22103,-131,-216,-27,-0.513725,-0.847059,-0.105882,0,77,24510
2026-05-22T02:37:55.101+00:00,1779417475101901000,307,R,7561,7815,9074,10283,7561,7815,9074,10283,19137,23424,18396,22109,-132,-219,-26,-0.517647,-0.858824,-0.101961,0,77,34510
2026-05-22T02:37:55.102+00:00,1779417475102081000,308,R,7562,7814,9076,10283,7562,7814,9076,10283,19134,23428,18394,22107,-131,-219,-28,-0.513725,-0.858824,-0.109804,0,77,44510
2026-05-22T02:37:55.102+00:00,1779417475102162000,309,R,7570,7822,9081,10291,7570,7822,9081,10291,19149,23435,18406,22118,-133,-217,-25,-0.521569,-0.85098,-0.098039,0,77,c4580
2026-05-22T02:37:55.102+00:00,1779417475102232000,310,R,7571,7821,9081,10293,7571,7821,9081,10293,19153,23432,18410,22116,-132,-217,-25,-0.517647,-0.85098,-0.098039,0,77,d4580
2026-05-22T02:37:55.102+00:00,1779417475102297000,311,R,7573,7822,9083,10293,7573,7822,9083,10293,19156,23437,18411,22117,-131,-218,-25,-0.513725,-0.854902,-0.098039,0,77,e4580
2026-05-22T02:37:55.398+00:00,1779417475398397000,312,R,7572,7823,9084,10293,7572,7823,9084,10293,19153,23435,18410,22113,-130,-217,-25,-0.509804,-0.85098,-0.098039,0,77,f4580
2026-05-22T02:37:55.398+00:00,1779417475398435000,313,R,7572,7823,9081,10292,7572,7823,9081,10292,19155,23437,18411,22118,-129,-218,-26,-0.505882,-0.854902,-0.101961,0,77,04580
2026-05-22T02:37:55.398+00:00,1779417475398451000,314,R,7573,7823,9083,10294,7573,7823,9083,10294,19152,23439,18411,22118,-130,-217,-26,-0.509804,-0.85098,-0.101961,0,77,14580
2026-05-22T02:37:55.398+00:00,1779417475398465000,315,R,7577,7829,9084,10302,7577,7829,9084,10302,19156,23434,18416,22132,-131,-217,-26,-0.513725,-0.85098,-0.101961,0,77,84640
2026-05-22T02:37:55.398+00:00,1779417475398478000,316,R,7578,7831,9084,10301,7578,7831,9084,10301,19157,23438,18420,22127,-130,-219,-25,-0.509804,-0.858824,-0.098039,0,77,94640
2026-05-22T02:37:55.550+00:00,1779417475550796000,317,R,7581,7833,9086,10304,7581,7833,9086,10304,19161,23436,18423,22130,-132,-218,-25,-0.517647,-0.854902,-0.098039,0,77,a4640
2026-05-22T02:37:55.550+00:00,1779417475550925000,318,R,7579,7832,9085,10306,7579,7832,9085,10306,19158,23439,18421,22132,-132,-217,-26,-0.517647,-0.85098,-0.101961,0,77,b4640
2026-05-22T02:37:55.550+00:00,1779417475550998000,319,R,7582,7832,9086,10308,7582,7832,9086,10308,19162,23435,18424,22137,-130,-219,-26,-0.509804,-0.858824,-0.101961,0,77,c4640
2026-05-22T02:37:55.551+00:00,1779417475551066000,320,R,7570,7827,9079,10299,7570,7827,9079,10299,19151,23432,18418,22130,-131,-217,-26,-0.513725,-0.85098,-0.101961,0,76,44710
2026-05-22T02:37:55.551+00:00,1779417475551129000,321,R,7568,7824,9074,10296,7568,7824,9074,10296,19148,23427,18415,22125,-131,-219,-25,-0.513725,-0.858824,-0.098039,0,76,54710
2026-05-22T02:37:55.551+00:00,1779417475551202000,322,R,7564,7824,9075,10291,7564,7824,9075,10291,19137,23422,18412,22119,-131,-220,-26,-0.513725,-0.862745,-0.101961,0,76,64710
2026-05-22T02:37:55.701+00:00,1779417475701206000,323,R,7558,7818,9071,10290,7558,7818,9071,10290,19136,23421,18410,22114,-128,-219,-26,-0.501961,-0.858824,-0.101961,0,76,74710
2026-05-22T02:37:55.701+00:00,1779417475701347000,324,R,7559,7818,9072,10286,7559,7818,9072,10286,19127,23418,18408,22112,-130,-217,-27,-0.509804,-0.85098,-0.105882,0,76,84710
2026-05-22T02:37:55.701+00:00,1779417475701436000,325,R,7543,7807,9060,10271,7543,7807,9060,10271,19104,23405,18391,22091,-127,-221,-25,-0.498039,-0.866667,-0.098039,0,76,04780
2026-05-22T02:37:55.701+00:00,1779417475701502000,326,R,7542,7806,9061,10268,7542,7806,9061,10268,19100,23402,18388,22092,-125,-220,-27,-0.490196,-0.862745,-0.105882,0,76,14780
2026-05-22T02:37:55.701+00:00,1779417475701565000,327,R,7541,7801,9057,10268,7541,7801,9057,10268,19094,23397,18384,22088,-124,-221,-27,-0.486275,-0.866667,-0.105882,0,76,24780
2026-05-22T02:37:55.850+00:00,1779417475851027000,328,R,7541,7802,9056,10266,7541,7802,9056,10266,19094,23392,18384,22086,-125,-220,-27,-0.490196,-0.862745,-0.105882,0,76,34780
2026-05-22T02:37:55.851+00:00,1779417475851168000,329,R,7534,7803,9054,10265,7534,7803,9054,10265,19092,23392,18383,22083,-126,-219,-26,-0.494118,-0.858824,-0.101961,0,76,44780
2026-05-22T02:37:55.851+00:00,1779417475851242000,330,R,7526,7810,9051,10273,7526,7810,9051,10273,19073,23390,18400,22096,-128,-220,-26,-0.501961,-0.862745,-0.101961,0,76,c4850
2026-05-22T02:37:55.851+00:00,1779417475851308000,331,R,7527,7812,9046,10273,7527,7812,9046,10273,19071,23387,18402,22096,-126,-218,-27,-0.494118,-0.854902,-0.105882,0,76,d4850
2026-05-22T02:37:55.851+00:00,1779417475851372000,332,R,7526,7813,9047,10276,7526,7813,9047,10276,19072,23384,18401,22099,-129,-219,-28,-0.505882,-0.858824,-0.109804,0,76,e4850
2026-05-22T02:37:56.146+00:00,1779417476146650000,333,R,7526,7814,9047,10278,7526,7814,9047,10278,19071,23384,18405,22101,-125,-219,-26,-0.490196,-0.858824,-0.101961,0,76,f4850
2026-05-22T02:37:56.146+00:00,1779417476146683000,334,R,7527,7814,9049,10277,7527,7814,9049,10277,19071,23383,18405,22102,-123,-219,-27,-0.482353,-0.858824,-0.105882,0,76,04850
2026-05-22T02:37:56.146+00:00,1779417476146699000,335,R,7528,7814,9048,10279,7528,7814,9048,10279,19072,23382,18409,22105,-135,-219,-25,-0.529412,-0.858824,-0.098039,0,76,14850
2026-05-22T02:37:56.146+00:00,1779417476146714000,336,R,7546,7807,9058,10274,7546,7807,9058,10274,19105,23390,18391,22098,-135,-221,-28,-0.529412,-0.866667,-0.109804,0,76,74900
2026-05-22T02:37:56.146+00:00,1779417476146728000,337,R,7547,7804,9058,10272,7547,7804,9058,10272,19106,23393,18384,22099,-128,-221,-28,-0.501961,-0.866667,-0.109804,0,76,84900
2026-05-22T02:37:56.153+00:00,1779417476153756000,338,R,7551,7804,9060,10275,7551,7804,9060,10275,19109,23389,18382,22097,-135,-225,-28,-0.529412,-0.882353,-0.109804,0,76,94900
2026-05-22T02:37:56.153+00:00,1779417476153783000,339,R,7552,7803,9060,10273,7552,7803,9060,10273,19111,23390,18380,22094,-128,-223,-25,-0.501961,-0.87451,-0.098039,0,76,a4900
2026-05-22T02:37:56.153+00:00,1779417476153801000,340,R,7551,7801,9063,10274,7551,7801,9063,10274,19114,23394,18377,22095,-123,-219,-31,-0.482353,-0.858824,-0.121569,0,76,b4900
2026-05-22T02:37:56.153+00:00,1779417476153814000,341,R,7553,7808,9077,10277,7553,7808,9077,10277,19111,23423,18379,22090,-132,-218,-23,-0.517647,-0.854902,-0.090196,0,76,24960
2026-05-22T02:37:56.153+00:00,1779417476153827000,342,R,7553,7808,9081,10276,7553,7808,9081,10276,19110,23431,18385,22089,-133,-218,-23,-0.521569,-0.854902,-0.090196,0,76,34960
2026-05-22T02:37:56.153+00:00,1779417476153840000,343,R,7549,7807,9081,10276,7549,7807,9081,10276,19110,23433,18383,22091,-130,-217,-25,-0.509804,-0.85098,-0.098039,0,76,44960
2026-05-22T02:37:56.301+00:00,1779417476301824000,344,R,7552,7809,9081,10284,7552,7809,9081,10284,19111,23432,18387,22091,-128,-217,-26,-0.501961,-0.85098,-0.101961,0,76,54960
2026-05-22T02:37:56.301+00:00,1779417476301868000,345,R,7552,7812,9087,10280,7552,7812,9087,10280,19106,23435,18386,22093,-128,-217,-27,-0.501961,-0.85098,-0.105882,0,76,64960
2026-05-22T02:37:56.301+00:00,1779417476301885000,346,R,7548,7820,9089,10290,7548,7820,9089,10290,19099,23445,18400,22103,-122,-222,-30,-0.478431,-0.870588,-0.117647,0,75,05050
2026-05-22T02:37:56.301+00:00,1779417476301899000,347,R,7541,7823,9084,10296,7541,7823,9084,10296,19093,23435,18398,22099,-125,-223,-29,-0.490196,-0.87451,-0.113725,0,75,15050
2026-05-22T02:37:56.301+00:00,1779417476301967000,348,R,7538,7818,9078,10283,7538,7818,9078,10283,19084,23423,18399,22097,-127,-222,-27,-0.498039,-0.870588,-0.105882,0,75,25050
2026-05-22T02:37:56.452+00:00,1779417476452440000,349,R,7537,7816,9066,10281,7537,7816,9066,10281,19080,23409,18400,22097,-127,-220,-26,-0.498039,-0.862745,-0.101961,0,75,35050
2026-05-22T02:37:56.452+00:00,1779417476452584000,350,R,7533,7816,9058,10278,7533,7816,9058,10278,19074,23394,18395,22096,-125,-218,-25,-0.490196,-0.854902,-0.098039,0,75,45050
2026-05-22T02:37:56.452+00:00,1779417476452662000,351,R,7547,7784,9004,10273,7547,7784,9004,10273,19102,23286,18353,22128,-137,-218,-30,-0.537255,-0.854902,-0.117647,0,75,c5120
2026-05-22T02:37:56.452+00:00,1779417476452730000,352,R,7550,7777,9001,10265,7550,7777,9001,10265,19102,23280,18348,22124,-135,-220,-29,-0.529412,-0.862745,-0.113725,0,75,d5120
2026-05-22T02:37:56.452+00:00,1779417476452795000,353,R,7550,7782,9007,10268,7550,7782,9007,10268,19108,23284,18347,22120,-134,-222,-30,-0.52549,-0.870588,-0.117647,0,75,e5120
2026-05-22T02:37:56.601+00:00,1779417476601458000,354,R,7549,7781,9011,10264,7549,7781,9011,10264,19105,23290,18341,22115,-131,-223,-29,-0.513725,-0.87451,-0.113725,0,75,f5120
2026-05-22T02:37:56.601+00:00,1779417476601522000,355,R,7548,7779,9019,10261,7548,7779,9019,10261,19107,23307,18343,22102,-127,-221,-30,-0.498039,-0.866667,-0.117647,0,75,05120
2026-05-22T02:37:56.601+00:00,1779417476601556000,356,R,7549,7779,9026,10259,7549,7779,9026,10259,19107,23324,18338,22091,-127,-220,-29,-0.498039,-0.862745,-0.113725,0,75,15120
2026-05-22T02:37:56.601+00:00,1779417476601586000,357,R,7554,7785,9057,10259,7554,7785,9057,10259,19109,23378,18350,22083,-129,-219,-24,-0.505882,-0.858824,-0.094118,0,75,85180
2026-05-22T02:37:56.601+00:00,1779417476601614000,358,R,7552,7787,9055,10261,7552,7787,9055,10261,19108,23383,18347,22077,-131,-217,-23,-0.513725,-0.85098,-0.090196,0,75,95180
2026-05-22T02:37:56.900+00:00,1779417476900987000,359,R,7552,7786,9059,10257,7552,7786,9059,10257,19111,23382,18353,22080,-129,-218,-23,-0.505882,-0.854902,-0.090196,0,75,a5180
2026-05-22T02:37:56.901+00:00,1779417476901147000,360,R,7553,7788,9061,10259,7553,7788,9061,10259,19111,23389,18351,22078,-131,-217,-23,-0.513725,-0.85098,-0.090196,0,75,b5180
2026-05-22T02:37:56.901+00:00,1779417476901222000,361,R,7554,7787,9060,10261,7554,7787,9060,10261,19112,23389,18350,22079,-129,-216,-24,-0.505882,-0.847059,-0.094118,0,75,c5180
2026-05-22T02:37:56.901+00:00,1779417476901304000,362,R,7558,7787,9066,10263,7558,7787,9066,10263,19113,23400,18349,22081,-135,-219,-25,-0.529412,-0.858824,-0.098039,0,75,45250
2026-05-22T02:37:56.901+00:00,1779417476901367000,363,R,7561,7785,9070,10265,7561,7785,9070,10265,19125,23396,18351,22080,-133,-220,-24,-0.521569,-0.862745,-0.094118,0,75,55250
2026-05-22T02:37:56.901+00:00,1779417476901430000,364,R,7560,7791,9068,10262,7560,7791,9068,10262,19120,23400,18351,22080,-133,-219,-25,-0.521569,-0.858824,-0.098039,0,75,65250
2026-05-22T02:37:57.050+00:00,1779417477050619000,365,R,7560,7789,9070,10265,7560,7789,9070,10265,19125,23402,18350,22079,-132,-218,-26,-0.517647,-0.854902,-0.101961,0,75,75250
2026-05-22T02:37:57.050+00:00,1779417477050679000,366,R,7563,7789,9071,10264,7563,7789,9071,10264,19122,23402,18349,22085,-131,-217,-26,-0.513725,-0.85098,-0.101961,0,75,85250
2026-05-22T02:37:57.050+00:00,1779417477050712000,367,R,7564,7801,9076,10275,7564,7801,9076,10275,19128,23411,18365,22091,-131,-217,-25,-0.513725,-0.85098,-0.098039,0,75,05320
2026-05-22T02:37:57.050+00:00,1779417477050740000,368,R,7567,7798,9075,10273,7567,7798,9075,10273,19134,23417,18370,22089,-133,-217,-25,-0.521569,-0.85098,-0.098039,0,75,15320
2026-05-22T02:37:57.050+00:00,1779417477050766000,369,R,7567,7805,9078,10279,7567,7805,9078,10279,19130,23416,18370,22092,-132,-216,-26,-0.517647,-0.847059,-0.101961,0,75,25320
2026-05-22T02:37:57.200+00:00,1779417477200506000,370,R,7569,7805,9078,10279,7569,7805,9078,10279,19133,23415,18375,22098,-132,-216,-26,-0.517647,-0.847059,-0.101961,0,75,35320
2026-05-22T02:37:57.200+00:00,1779417477200616000,371,R,7569,7807,9078,10283,7569,7807,9078,10283,19134,23422,18378,22100,-131,-219,-27,-0.513725,-0.858824,-0.105882,0,75,45320
2026-05-22T02:37:57.200+00:00,1779417477200687000,372,R,7573,7820,9087,10294,7573,7820,9087,10294,19135,23430,18400,22107,-131,-217,-26,-0.513725,-0.85098,-0.101961,0,75,c5390
2026-05-22T02:37:57.200+00:00,1779417477200751000,373,R,7570,7824,9082,10297,7570,7824,9082,10297,19139,23433,18404,22112,-132,-218,-25,-0.517647,-0.854902,-0.098039,0,75,d5390
2026-05-22T02:37:57.200+00:00,1779417477200815000,374,R,7574,7824,9088,10297,7574,7824,9088,10297,19138,23434,18404,22113,-130,-219,-25,-0.509804,-0.858824,-0.098039,0,75,e5390
2026-05-22T02:37:57.351+00:00,1779417477351438000,375,R,7574,7826,9088,10299,7574,7826,9088,10299,19139,23438,18404,22111,-130,-220,-26,-0.509804,-0.862745,-0.101961,0,75,f5390
2026-05-22T02:37:57.351+00:00,1779417477351887000,376,R,7574,7827,9091,10298,7574,7827,9091,10298,19138,23435,18402,22118,-129,-217,-26,-0.505882,-0.85098,-0.101961,0,75,05390
2026-05-22T02:37:57.351+00:00,1779417477351972000,377,R,7571,7825,9090,10295,7571,7825,9090,10295,19134,23436,18403,22114,-129,-218,-27,-0.505882,-0.854902,-0.105882,0,75,15390
2026-05-22T02:37:57.352+00:00,1779417477352040000,378,R,7563,7814,9075,10277,7563,7814,9075,10277,19123,23419,18391,22093,-130,-217,-27,-0.509804,-0.85098,-0.105882,0,75,75440
2026-05-22T02:37:57.352+00:00,1779417477352105000,379,R,7561,7813,9076,10276,7561,7813,9076,10276,19120,23419,18389,22090,-130,-218,-26,-0.509804,-0.854902,-0.101961,0,75,85440
2026-05-22T02:37:57.352+00:00,1779417477352169000,380,R,7558,7808,9075,10274,7558,7808,9075,10274,19119,23414,18385,22089,-132,-218,-26,-0.517647,-0.854902,-0.101961,0,75,95440
2026-05-22T02:37:57.499+00:00,1779417477499389000,381,R,7559,7811,9075,10272,7559,7811,9075,10272,19117,23417,18389,22085,-131,-218,-27,-0.513725,-0.854902,-0.105882,0,74,a5440
2026-05-22T02:37:57.499+00:00,1779417477499560000,382,R,7558,7812,9071,10271,7558,7812,9071,10271,19113,23414,18388,22083,-131,-218,-27,-0.513725,-0.854902,-0.105882,0,74,b5440
2026-05-22T02:37:57.499+00:00,1779417477499634000,383,R,7550,7803,9057,10263,7550,7803,9057,10263,19102,23387,18373,22072,-133,-217,-26,-0.521569,-0.85098,-0.101961,0,74,35510
2026-05-22T02:37:57.499+00:00,1779417477499700000,384,R,7549,7807,9057,10264,7549,7807,9057,10264,19096,23383,18377,22072,-132,-220,-26,-0.517647,-0.862745,-0.101961,0,74,45510
2026-05-22T02:37:57.499+00:00,1779417477499763000,385,R,7551,7806,9061,10263,7551,7806,9061,10263,19100,23387,18377,22076,-132,-218,-27,-0.517647,-0.854902,-0.105882,0,74,55510
2026-05-22T02:37:57.649+00:00,1779417477649683000,386,R,7549,7804,9062,10264,7549,7804,9062,10264,19098,23390,18380,22073,-130,-218,-28,-0.509804,-0.854902,-0.109804,0,74,65510
2026-05-22T02:37:57.649+00:00,1779417477649818000,387,R,7549,7806,9063,10262,7549,7806,9063,10262,19098,23391,18383,22071,-129,-219,-27,-0.505882,-0.858824,-0.105882,0,74,75510
2026-05-22T02:37:57.649+00:00,1779417477649892000,388,R,7544,7808,9062,10265,7544,7808,9062,10265,19091,23395,18383,22071,-127,-219,-27,-0.498039,-0.858824,-0.105882,0,74,05590
2026-05-22T02:37:57.649+00:00,1779417477649959000,389,R,7543,7807,9056,10266,7543,7807,9056,10266,19094,23396,18383,22070,-131,-219,-27,-0.513725,-0.858824,-0.105882,0,74,15590
2026-05-22T02:37:57.650+00:00,1779417477650023000,390,R,7548,7808,9062,10268,7548,7808,9062,10268,19093,23394,18382,22071,-132,-216,-28,-0.517647,-0.847059,-0.109804,0,74,25590
2026-05-22T02:37:57.799+00:00,1779417477799927000,391,R,7549,7811,9064,10267,7549,7811,9064,10267,19097,23398,18383,22076,-132,-217,-28,-0.517647,-0.85098,-0.109804,0,74,35590
2026-05-22T02:37:57.800+00:00,1779417477800080000,392,R,7549,7811,9065,10271,7549,7811,9065,10271,19098,23397,18383,22076,-135,-217,-28,-0.529412,-0.85098,-0.109804,0,74,45590
2026-05-22T02:37:57.800+00:00,1779417477800157000,393,R,7551,7812,9065,10273,7551,7812,9065,10273,19100,23395,18381,22075,-133,-218,-28,-0.521569,-0.854902,-0.109804,0,74,55590
2026-05-22T02:37:57.800+00:00,1779417477800223000,394,R,7556,7815,9071,10276,7556,7815,9071,10276,19103,23404,18387,22082,-131,-218,-28,-0.513725,-0.854902,-0.109804,0,74,b5640
2026-05-22T02:37:57.800+00:00,1779417477800298000,395,R,7556,7815,9072,10280,7556,7815,9072,10280,19104,23402,18390,22087,-132,-218,-28,-0.517647,-0.854902,-0.109804,0,74,c5640
2026-05-22T02:37:57.949+00:00,1779417477949885000,396,R,7558,7817,9073,10281,7558,7817,9073,10281,19110,23410,18390,22091,-132,-218,-27,-0.517647,-0.854902,-0.105882,0,74,d5640
2026-05-22T02:37:57.950+00:00,1779417477950032000,397,R,7561,7821,9074,10281,7561,7821,9074,10281,19108,23410,18392,22094,-133,-217,-27,-0.521569,-0.85098,-0.105882,0,74,e5640
2026-05-22T02:37:57.950+00:00,1779417477950114000,398,R,7558,7820,9075,10283,7558,7820,9075,10283,19110,23412,18393,22094,-131,-218,-27,-0.513725,-0.854902,-0.105882,0,74,f5640
2026-05-22T02:37:57.950+00:00,1779417477950180000,399,R,7568,7824,9079,10294,7568,7824,9079,10294,19124,23417,18395,22104,-129,-219,-28,-0.505882,-0.858824,-0.109804,0,74,65700
2026-05-22T02:37:57.950+00:00,1779417477950243000,400,R,7571,7825,9082,10295,7571,7825,9082,10295,19126,23418,18396,22108,-128,-217,-28,-0.501961,-0.85098,-0.109804,0,74,75700
2026-05-22T02:37:57.950+00:00,1779417477950307000,401,R,7573,7825,9082,10297,7573,7825,9082,10297,19129,23417,18396,22108,-130,-218,-29,-0.509804,-0.854902,-0.113725,0,74,85700
2026-05-22T02:37:58.099+00:00,1779417478099827000,402,R,7573,7826,9084,10298,7573,7826,9084,10298,19128,23421,18399,22113,-130,-219,-28,-0.509804,-0.858824,-0.109804,0,74,95700
2026-05-22T02:37:58.099+00:00,1779417478099981000,403,R,7574,7827,9085,10300,7574,7827,9085,10300,19130,23421,18398,22111,-130,-218,-28,-0.509804,-0.854902,-0.109804,0,74,a5700
2026-05-22T02:37:58.100+00:00,1779417478100055000,404,R,7586,7833,9096,10313,7586,7833,9096,10313,19145,23435,18406,22128,-131,-218,-28,-0.513725,-0.854902,-0.109804,0,74,35780
2026-05-22T02:37:58.100+00:00,1779417478100122000,405,R,7587,7834,9094,10313,7587,7834,9094,10313,19150,23436,18407,22126,-130,-217,-27,-0.509804,-0.85098,-0.105882,0,74,45780
2026-05-22T02:37:58.100+00:00,1779417478100185000,406,R,7583,7830,9093,10309,7583,7830,9093,10309,19144,23433,18400,22126,-130,-218,-28,-0.509804,-0.854902,-0.109804,0,74,55780
2026-05-22T02:37:58.249+00:00,1779417478249209000,407,R,7584,7829,9092,10310,7584,7829,9092,10310,19145,23432,18404,22128,-130,-219,-28,-0.509804,-0.858824,-0.109804,0,74,65780
2026-05-22T02:37:58.249+00:00,1779417478249365000,408,R,7580,7830,9089,10305,7580,7830,9089,10305,19144,23433,18402,22119,-133,-219,-27,-0.521569,-0.858824,-0.105882,0,74,75780
2026-05-22T02:37:58.249+00:00,1779417478249440000,409,R,7570,7819,9082,10290,7570,7819,9082,10290,19126,23418,18390,22102,-131,-217,-26,-0.513725,-0.85098,-0.101961,0,74,f5850
2026-05-22T02:37:58.249+00:00,1779417478249508000,410,R,7568,7819,9080,10290,7568,7819,9080,10290,19124,23416,18389,22096,-131,-217,-27,-0.513725,-0.85098,-0.105882,0,74,05850
2026-05-22T02:37:58.249+00:00,1779417478249573000,411,R,7568,7821,9078,10291,7568,7821,9078,10291,19128,23414,18388,22098,-131,-217,-26,-0.513725,-0.85098,-0.101961,0,74,15850
2026-05-22T02:37:58.400+00:00,1779417478400844000,412,R,7569,7821,9077,10285,7569,7821,9077,10285,19120,23419,18389,22097,-132,-218,-28,-0.517647,-0.854902,-0.109804,0,74,25850
2026-05-22T02:37:58.400+00:00,1779417478400973000,413,R,7567,7818,9078,10285,7567,7818,9078,10285,19120,23414,18385,22094,-131,-218,-28,-0.513725,-0.854902,-0.109804,0,74,35850
2026-05-22T02:37:58.401+00:00,1779417478401046000,414,R,7563,7815,9076,10284,7563,7815,9076,10284,19119,23409,18385,22092,-130,-219,-28,-0.509804,-0.858824,-0.109804,0,74,45850
2026-05-22T02:37:58.401+00:00,1779417478401111000,415,R,7567,7818,9077,10287,7567,7818,9077,10287,19124,23412,18384,22093,-130,-218,-28,-0.509804,-0.854902,-0.109804,0,74,a5900
2026-05-22T02:37:58.401+00:00,1779417478401175000,416,R,7570,7816,9075,10285,7570,7816,9075,10285,19120,23408,18387,22090,-131,-218,-27,-0.513725,-0.854902,-0.105882,0,74,b5900
2026-05-22T02:37:58.550+00:00,1779417478550945000,417,R,7566,7816,9077,10286,7566,7816,9077,10286,19116,23408,18384,22090,-131,-218,-26,-0.513725,-0.854902,-0.101961,0,74,c5900
2026-05-22T02:37:58.551+00:00,1779417478551088000,418,R,7564,7815,9076,10286,7564,7815,9076,10286,19119,23407,18383,22092,-132,-218,-27,-0.517647,-0.854902,-0.105882,0,74,d5900
2026-05-22T02:37:58.551+00:00,1779417478551160000,419,R,7565,7818,9077,10286,7565,7818,9077,10286,19121,23411,18382,22093,-131,-218,-26,-0.513725,-0.854902,-0.101961,0,74,e5900
2026-05-22T02:37:58.551+00:00,1779417478551225000,420,R,7567,7821,9081,10290,7567,7821,9081,10290,19118,23409,18385,22094,-131,-217,-27,-0.513725,-0.85098,-0.105882,0,74,55960
2026-05-22T02:37:58.551+00:00,1779417478551289000,421,R,7570,7823,9079,10289,7570,7823,9079,10289,19120,23411,18386,22094,-131,-217,-27,-0.513725,-0.85098,-0.105882,0,74,65960
2026-05-22T02:37:58.551+00:00,1779417478551351000,422,R,7568,7824,9080,10290,7568,7824,9080,10290,19122,23414,18386,22094,-132,-218,-28,-0.517647,-0.854902,-0.109804,0,74,75960
2026-05-22T02:37:58.700+00:00,1779417478700791000,423,R,7570,7825,9081,10293,7570,7825,9081,10293,19120,23409,18388,22099,-132,-219,-27,-0.517647,-0.858824,-0.105882,0,74,85960
2026-05-22T02:37:58.700+00:00,1779417478700932000,424,R,7568,7823,9082,10294,7568,7823,9082,10294,19119,23412,18391,22098,-132,-219,-28,-0.517647,-0.858824,-0.109804,0,74,95960
2026-05-22T02:37:58.700+00:00,1779417478701006000,425,R,7578,7829,9088,10307,7578,7829,9088,10307,19128,23424,18401,22113,-130,-217,-26,-0.509804,-0.85098,-0.101961,0,74,36050
2026-05-22T02:37:58.701+00:00,1779417478701084000,426,R,7578,7834,9091,10306,7578,7834,9091,10306,19131,23426,18399,22112,-129,-217,-26,-0.505882,-0.85098,-0.101961,0,74,46050
2026-05-22T02:37:58.701+00:00,1779417478701149000,427,R,7577,7833,9091,10309,7577,7833,9091,10309,19131,23429,18399,22113,-131,-218,-27,-0.513725,-0.854902,-0.105882,0,74,56050
2026-05-22T02:37:58.850+00:00,1779417478851028000,428,R,7580,7835,9090,10308,7580,7835,9090,10308,19132,23427,18403,22117,-131,-218,-26,-0.513725,-0.854902,-0.101961,0,74,66050
2026-05-22T02:37:58.851+00:00,1779417478851173000,429,R,7580,7834,9093,10311,7580,7834,9093,10311,19134,23430,18404,22116,-130,-218,-26,-0.509804,-0.854902,-0.101961,0,74,76050
2026-05-22T02:37:58.851+00:00,1779417478851248000,430,R,7584,7841,9097,10318,7584,7841,9097,10318,19139,23437,18413,22126,-131,-218,-26,-0.513725,-0.854902,-0.101961,0,74,e6110
2026-05-22T02:37:58.851+00:00,1779417478851314000,431,R,7587,7843,9099,10324,7587,7843,9099,10324,19141,23435,18411,22127,-131,-219,-26,-0.513725,-0.858824,-0.101961,0,74,f6110
2026-05-22T02:37:58.851+00:00,1779417478851378000,432,R,7589,7842,9102,10323,7589,7842,9102,10323,19141,23440,18411,22136,-131,-218,-26,-0.513725,-0.854902,-0.101961,0,74,06110
2026-05-22T02:37:58.999+00:00,1779417478999818000,433,R,7587,7842,9099,10326,7587,7842,9099,10326,19143,23439,18412,22132,-131,-216,-27,-0.513725,-0.847059,-0.105882,0,74,16110
2026-05-22T02:37:58.999+00:00,1779417478999978000,434,R,7589,7841,9098,10323,7589,7841,9098,10323,19144,23439,18411,22133,-130,-218,-28,-0.509804,-0.854902,-0.109804,0,74,26110
2026-05-22T02:37:59.000+00:00,1779417479000052000,435,R,7588,7841,9100,10318,7588,7841,9100,10318,19141,23438,18408,22129,-130,-219,-28,-0.509804,-0.858824,-0.109804,0,74,36110
2026-05-22T02:37:59.000+00:00,1779417479000118000,436,R,7573,7825,9086,10299,7573,7825,9086,10299,19126,23421,18394,22103,-131,-216,-27,-0.513725,-0.847059,-0.105882,0,73,b6180
2026-05-22T02:37:59.000+00:00,1779417479000182000,437,R,7571,7828,9080,10295,7571,7828,9080,10295,19121,23417,18390,22098,-132,-216,-27,-0.517647,-0.847059,-0.105882,0,73,c6180
2026-05-22T02:37:59.149+00:00,1779417479149266000,438,R,7570,7827,9081,10296,7570,7827,9081,10296,19120,23416,18388,22099,-131,-217,-27,-0.513725,-0.85098,-0.105882,0,73,d6180
2026-05-22T02:37:59.149+00:00,1779417479149312000,439,R,7572,7822,9082,10292,7572,7822,9082,10292,19115,23410,18387,22097,-130,-217,-27,-0.509804,-0.85098,-0.105882,0,73,e6180
2026-05-22T02:37:59.149+00:00,1779417479149334000,440,R,7568,7824,9081,10293,7568,7824,9081,10293,19114,23414,18386,22094,-132,-217,-26,-0.517647,-0.85098,-0.101961,0,73,f6180
2026-05-22T02:37:59.149+00:00,1779417479149354000,441,R,7563,7823,9078,10288,7563,7823,9078,10288,19109,23404,18382,22086,-130,-216,-27,-0.509804,-0.847059,-0.105882,0,73,76250
2026-05-22T02:37:59.149+00:00,1779417479149372000,442,R,7570,7821,9080,10294,7570,7821,9080,10294,19109,23405,18380,22087,-131,-219,-27,-0.513725,-0.858824,-0.105882,0,73,86250
2026-05-22T02:37:59.149+00:00,1779417479149390000,443,R,7566,7821,9079,10286,7566,7821,9079,10286,19107,23406,18382,22088,-130,-219,-25,-0.509804,-0.858824,-0.098039,0,73,96250
2026-05-22T02:37:59.300+00:00,1779417479301009000,444,R,7564,7823,9077,10291,7564,7823,9077,10291,19104,23403,18382,22086,-132,-219,-26,-0.517647,-0.858824,-0.101961,0,73,a6250
2026-05-22T02:37:59.301+00:00,1779417479301168000,445,R,7566,7821,9078,10290,7566,7821,9078,10290,19108,23403,18384,22089,-131,-218,-26,-0.513725,-0.854902,-0.101961,0,73,b6250
2026-05-22T02:37:59.301+00:00,1779417479301243000,446,R,7565,7823,9082,10292,7565,7823,9082,10292,19108,23405,18383,22088,-130,-218,-28,-0.509804,-0.854902,-0.109804,0,73,36320
2026-05-22T02:37:59.301+00:00,1779417479301310000,447,R,7568,7823,9091,10291,7568,7823,9091,10291,19105,23407,18382,22092,-131,-217,-27,-0.513725,-0.85098,-0.105882,0,73,46320
2026-05-22T02:37:59.301+00:00,1779417479301374000,448,R,7568,7827,9083,10294,7568,7827,9083,10294,19107,23404,18387,22092,-132,-219,-28,-0.517647,-0.858824,-0.109804,0,73,56320
2026-05-22T02:37:59.450+00:00,1779417479450871000,449,R,7566,7823,9083,10293,7566,7823,9083,10293,19106,23405,18386,22090,-132,-218,-28,-0.517647,-0.854902,-0.109804,0,73,66320
2026-05-22T02:37:59.450+00:00,1779417479451004000,450,R,7568,7825,9082,10297,7568,7825,9082,10297,19109,23408,18386,22093,-132,-218,-27,-0.517647,-0.854902,-0.105882,0,73,76320
2026-05-22T02:37:59.451+00:00,1779417479451953000,451,R,7572,7832,9087,10307,7572,7832,9087,10307,19114,23411,18395,22104,-131,-217,-26,-0.513725,-0.85098,-0.101961,0,73,f6390
2026-05-22T02:37:59.452+00:00,1779417479452031000,452,R,7574,7835,9083,10304,7574,7835,9083,10304,19113,23412,18392,22100,-131,-218,-26,-0.513725,-0.854902,-0.101961,0,73,06390
2026-05-22T02:37:59.452+00:00,1779417479452096000,453,R,7573,7832,9088,10308,7573,7832,9088,10308,19117,23416,18395,22105,-131,-217,-26,-0.513725,-0.85098,-0.101961,0,73,16390
2026-05-22T02:37:59.599+00:00,1779417479599848000,454,R,7577,7834,9091,10309,7577,7834,9091,10309,19119,23418,18393,22107,-130,-217,-26,-0.509804,-0.85098,-0.101961,0,73,26390
2026-05-22T02:37:59.599+00:00,1779417479600003000,455,R,7576,7836,9090,10309,7576,7836,9090,10309,19119,23419,18398,22112,-131,-218,-26,-0.513725,-0.854902,-0.101961,0,73,36390
2026-05-22T02:37:59.600+00:00,1779417479600077000,456,R,7575,7837,9090,10310,7575,7837,9090,10310,19123,23419,18398,22112,-130,-217,-27,-0.509804,-0.85098,-0.105882,0,73,46390
2026-05-22T02:37:59.600+00:00,1779417479600143000,457,R,7582,7839,9097,10318,7582,7839,9097,10318,19126,23421,18404,22119,-130,-218,-27,-0.509804,-0.854902,-0.105882,0,73,b6450
2026-05-22T02:37:59.600+00:00,1779417479600217000,458,R,7585,7840,9101,10323,7585,7840,9101,10323,19127,23427,18403,22118,-132,-218,-27,-0.517647,-0.854902,-0.105882,0,73,c6450
2026-05-22T02:37:59.750+00:00,1779417479750864000,459,R,7583,7841,9097,10319,7583,7841,9097,10319,19128,23426,18403,22120,-132,-217,-27,-0.517647,-0.85098,-0.105882,0,73,d6450
2026-05-22T02:37:59.750+00:00,1779417479750984000,460,R,7582,7839,9097,10321,7582,7839,9097,10321,19132,23426,18403,22120,-132,-219,-27,-0.517647,-0.858824,-0.105882,0,73,e6450
2026-05-22T02:37:59.751+00:00,1779417479751060000,461,R,7586,7844,9101,10324,7586,7844,9101,10324,19131,23427,18404,22125,-132,-219,-27,-0.517647,-0.858824,-0.105882,0,73,f6450
2026-05-22T02:37:59.751+00:00,1779417479751127000,462,R,7591,7847,9105,10330,7591,7847,9105,10330,19139,23435,18406,22129,-132,-219,-27,-0.517647,-0.858824,-0.105882,0,73,76520
2026-05-22T02:37:59.751+00:00,1779417479751192000,463,R,7592,7843,9111,10326,7592,7843,9111,10326,19137,23436,18405,22131,-131,-219,-27,-0.513725,-0.858824,-0.105882,0,73,86520
2026-05-22T02:37:59.751+00:00,1779417479751255000,464,R,7584,7841,9101,10323,7584,7841,9101,10323,19135,23428,18400,22123,-131,-219,-27,-0.513725,-0.858824,-0.105882,0,73,96520
2026-05-22T02:37:59.900+00:00,1779417479900869000,465,R,7582,7837,9098,10317,7582,7837,9098,10317,19132,23426,18400,22117,-130,-219,-27,-0.509804,-0.858824,-0.105882,0,73,a6520
2026-05-22T02:37:59.900+00:00,1779417479900970000,466,R,7582,7837,9095,10313,7582,7837,9095,10313,19129,23425,18397,22117,-131,-217,-27,-0.513725,-0.85098,-0.105882,0,73,b6520
2026-05-22T02:37:59.901+00:00,1779417479901008000,467,R,7570,7827,9086,10300,7570,7827,9086,10300,19116,23413,18384,22093,-132,-218,-27,-0.517647,-0.854902,-0.105882,0,73,36590
2026-05-22T02:37:59.901+00:00,1779417479901040000,468,R,7571,7827,9084,10297,7571,7827,9084,10297,19108,23401,18381,22088,-132,-217,-26,-0.517647,-0.85098,-0.101961,0,73,46590
2026-05-22T02:37:59.901+00:00,1779417479901071000,469,R,7570,7827,9083,10295,7570,7827,9083,10295,19110,23408,18381,22092,-131,-218,-26,-0.513725,-0.854902,-0.101961,0,73,56590
2026-05-22T02:38:00.049+00:00,1779417480049267000,470,R,7567,7826,9084,10295,7567,7826,9084,10295,19109,23402,18381,22086,-131,-219,-26,-0.513725,-0.858824,-0.101961,0,73,66590
2026-05-22T02:38:00.049+00:00,1779417480049333000,471,R,7567,7827,9084,10295,7567,7827,9084,10295,19104,23398,18378,22088,-130,-218,-26,-0.509804,-0.854902,-0.101961,0,73,76590
2026-05-22T02:38:00.049+00:00,1779417480049363000,472,R,7567,7825,9082,10294,7567,7825,9082,10294,19105,23399,18379,22087,-131,-218,-25,-0.513725,-0.854902,-0.098039,0,72,f6660
2026-05-22T02:38:00.049+00:00,1779417480049389000,473,R,7572,7823,9082,10293,7572,7823,9082,10293,19104,23401,18381,22090,-130,-218,-26,-0.509804,-0.854902,-0.101961,0,72,06660
2026-05-22T02:38:00.049+00:00,1779417480049415000,474,R,7568,7826,9084,10296,7568,7826,9084,10296,19104,23396,18380,22083,-129,-217,-26,-0.505882,-0.85098,-0.101961,0,72,16660
2026-05-22T02:38:00.345+00:00,1779417480345875000,475,R,7567,7826,9083,10296,7567,7826,9083,10296,19103,23399,18379,22083,-129,-217,-27,-0.505882,-0.85098,-0.105882,0,72,26660
2026-05-22T02:38:00.345+00:00,1779417480345908000,476,R,7567,7824,9082,10294,7567,7824,9082,10294,19104,23398,18379,22087,-130,-216,-26,-0.509804,-0.847059,-0.101961,0,72,36660
2026-05-22T02:38:00.345+00:00,1779417480345924000,477,R,7567,7824,9080,10295,7567,7824,9080,10295,19104,23397,18380,22084,-130,-217,-26,-0.509804,-0.85098,-0.101961,0,72,46660
2026-05-22T02:38:00.345+00:00,1779417480345938000,478,R,7570,7827,9083,10299,7570,7827,9083,10299,19108,23403,18384,22091,-130,-218,-27,-0.509804,-0.854902,-0.105882,0,72,a6710
2026-05-22T02:38:00.345+00:00,1779417480345951000,479,R,7571,7829,9087,10301,7571,7829,9087,10301,19105,23401,18387,22092,-130,-218,-27,-0.509804,-0.854902,-0.105882,0,72,b6710
2026-05-22T02:38:00.345+00:00,1779417480345964000,480,R,7572,7831,9086,10301,7572,7831,9086,10301,19108,23402,18382,22095,-132,-218,-28,-0.517647,-0.854902,-0.109804,0,72,c6710
2026-05-22T02:38:00.351+00:00,1779417480351668000,481,R,7572,7830,9089,10307,7572,7830,9089,10307,19109,23404,18388,22094,-132,-219,-28,-0.517647,-0.858824,-0.109804,0,72,d6710
2026-05-22T02:38:00.351+00:00,1779417480351692000,482,R,7570,7834,9090,10306,7570,7834,9090,10306,19107,23401,18386,22097,-133,-218,-28,-0.521569,-0.854902,-0.109804,0,72,e6710
2026-05-22T02:38:00.351+00:00,1779417480351705000,483,R,7579,7838,9093,10314,7579,7838,9093,10314,19115,23410,18390,22106,-130,-216,-26,-0.509804,-0.847059,-0.101961,0,72,66780
2026-05-22T02:38:00.351+00:00,1779417480351718000,484,R,7579,7838,9095,10313,7579,7838,9095,10313,19121,23417,18393,22107,-130,-217,-25,-0.509804,-0.85098,-0.098039,0,72,76780
2026-05-22T02:38:00.351+00:00,1779417480351739000,485,R,7578,7838,9097,10315,7578,7838,9097,10315,19117,23415,18389,22103,-130,-218,-25,-0.509804,-0.854902,-0.098039,0,72,86780
2026-05-22T02:38:00.501+00:00,1779417480501918000,486,R,7581,7839,9099,10317,7581,7839,9099,10317,19121,23418,18392,22107,-130,-219,-27,-0.509804,-0.858824,-0.105882,0,72,96780
2026-05-22T02:38:00.501+00:00,1779417480501956000,487,R,7581,7839,9097,10318,7581,7839,9097,10318,19122,23414,18391,22106,-129,-220,-26,-0.505882,-0.862745,-0.101961,0,72,a6780
2026-05-22T02:38:00.501+00:00,1779417480501978000,488,R,7589,7848,9107,10329,7589,7848,9107,10329,19130,23424,18401,22119,-129,-219,-27,-0.505882,-0.858824,-0.105882,0,72,26850
2026-05-22T02:38:00.501+00:00,1779417480501999000,489,R,7591,7848,9106,10329,7591,7848,9106,10329,19134,23432,18399,22116,-131,-218,-26,-0.513725,-0.854902,-0.101961,0,72,36850
2026-05-22T02:38:00.502+00:00,1779417480502020000,490,R,7592,7848,9106,10332,7592,7848,9106,10332,19130,23425,18401,22119,-130,-217,-28,-0.509804,-0.85098,-0.109804,0,72,46850
2026-05-22T02:38:00.652+00:00,1779417480652794000,491,R,7593,7851,9108,10333,7593,7851,9108,10333,19135,23431,18404,22121,-130,-218,-27,-0.509804,-0.854902,-0.105882,0,72,56850
2026-05-22T02:38:00.652+00:00,1779417480652838000,492,R,7590,7852,9109,10333,7590,7852,9109,10333,19135,23431,18404,22124,-132,-218,-27,-0.517647,-0.854902,-0.105882,0,72,66850
2026-05-22T02:38:00.652+00:00,1779417480652861000,493,R,7592,7850,9110,10333,7592,7850,9110,10333,19135,23433,18407,22129,-131,-218,-26,-0.513725,-0.854902,-0.101961,0,72,76850
2026-05-22T02:38:00.652+00:00,1779417480652881000,494,R,7600,7859,9118,10341,7600,7859,9118,10341,19146,23443,18416,22137,-132,-219,-27,-0.517647,-0.858824,-0.105882,0,72,d6900
2026-05-22T02:38:00.652+00:00,1779417480652900000,495,R,7599,7857,9117,10344,7599,7857,9117,10344,19151,23443,18414,22135,-130,-219,-28,-0.509804,-0.858824,-0.109804,0,72,e6900
2026-05-22T02:38:00.802+00:00,1779417480802635000,496,R,7600,7858,9117,10344,7600,7858,9117,10344,19146,23444,18414,22137,-129,-218,-29,-0.505882,-0.854902,-0.113725,0,72,f6900
2026-05-22T02:38:00.802+00:00,1779417480802789000,497,R,7601,7856,9118,10346,7601,7856,9118,10346,19151,23439,18410,22137,-131,-219,-29,-0.513725,-0.858824,-0.113725,0,72,06900
2026-05-22T02:38:00.803+00:00,1779417480803049000,498,R,7598,7855,9114,10338,7598,7855,9114,10338,19147,23442,18407,22134,-130,-219,-28,-0.509804,-0.858824,-0.109804,0,72,16900
2026-05-22T02:38:00.803+00:00,1779417480803124000,499,R,7588,7842,9100,10318,7588,7842,9100,10318,19131,23421,18394,22104,-132,-216,-27,-0.517647,-0.847059,-0.105882,0,72,86960
2026-05-22T02:38:00.803+00:00,1779417480803190000,500,R,7585,7841,9099,10316,7585,7841,9099,10316,19131,23421,18394,22102,-131,-216,-28,-0.513725,-0.847059,-0.109804,0,72,96960
2026-05-22T02:38:00.803+00:00,1779417480803253000,501,R,7587,7840,9100,10313,7587,7840,9100,10313,19130,23419,18393,22099,-131,-217,-28,-0.513725,-0.85098,-0.109804,0,72,a6960
2026-05-22T02:38:01.100+00:00,1779417481101025000,502,R,7587,7840,9100,10313,7587,7840,9100,10313,19125,23421,18390,22102,-131,-217,-27,-0.513725,-0.85098,-0.105882,0,72,b6960
2026-05-22T02:38:01.101+00:00,1779417481101175000,503,R,7586,7837,9099,10310,7586,7837,9099,10310,19124,23416,18387,22097,-132,-218,-28,-0.517647,-0.854902,-0.109804,0,72,c6960
2026-05-22T02:38:01.101+00:00,1779417481101249000,504,R,7582,7838,9095,10307,7582,7838,9095,10307,19118,23410,18385,22091,-129,-216,-26,-0.505882,-0.847059,-0.101961,0,72,47030
2026-05-22T02:38:01.101+00:00,1779417481101314000,505,R,7582,7840,9095,10310,7582,7840,9095,10310,19122,23409,18387,22093,-131,-218,-26,-0.513725,-0.854902,-0.101961,0,72,57030
2026-05-22T02:38:01.101+00:00,1779417481101377000,506,R,7583,7838,9096,10308,7583,7838,9096,10308,19119,23410,18384,22092,-132,-218,-25,-0.517647,-0.854902,-0.098039,0,72,67030
2026-05-22T02:38:01.250+00:00,1779417481250321000,507,R,7585,7839,9095,10307,7585,7839,9095,10307,19120,23406,18384,22090,-130,-219,-25,-0.509804,-0.858824,-0.098039,0,72,77030
2026-05-22T02:38:01.250+00:00,1779417481250358000,508,R,7582,7838,9096,10307,7582,7838,9096,10307,19118,23409,18383,22090,-130,-219,-25,-0.509804,-0.858824,-0.098039,0,72,87030
2026-05-22T02:38:01.250+00:00,1779417481250377000,509,R,7585,7840,9097,10312,7585,7840,9097,10312,19119,23408,18387,22092,-129,-218,-27,-0.505882,-0.854902,-0.105882,0,72,27120
2026-05-22T02:38:01.250+00:00,1779417481250395000,510,R,7588,7842,9098,10313,7588,7842,9098,10313,19128,23413,18387,22092,-130,-218,-27,-0.509804,-0.854902,-0.105882,0,72,37120
2026-05-22T02:38:01.250+00:00,1779417481250411000,511,R,7587,7841,9098,10313,7587,7841,9098,10313,19124,23414,18387,22095,-130,-219,-26,-0.509804,-0.858824,-0.101961,0,72,47120
2026-05-22T02:38:01.399+00:00,1779417481399264000,512,R,7587,7839,9100,10313,7587,7839,9100,10313,19126,23412,18391,22097,-132,-219,-28,-0.517647,-0.858824,-0.109804,0,72,57120
2026-05-22T02:38:01.399+00:00,1779417481399403000,513,R,7588,7840,9103,10318,7588,7840,9103,10318,19127,23410,18390,22101,-132,-219,-26,-0.517647,-0.858824,-0.101961,0,72,67120
2026-05-22T02:38:01.399+00:00,1779417481399481000,514,R,7591,7841,9101,10319,7591,7841,9101,10319,19126,23411,18388,22101,-132,-219,-27,-0.517647,-0.858824,-0.105882,0,72,77120
2026-05-22T02:38:01.399+00:00,1779417481399548000,515,R,7596,7844,9109,10326,7596,7844,9109,10326,19140,23419,18391,22109,-130,-217,-26,-0.509804,-0.85098,-0.101961,0,72,e7180
2026-05-22T02:38:01.399+00:00,1779417481399614000,516,R,7598,7845,9110,10319,7598,7845,9110,10319,19140,23424,18390,22111,-131,-217,-26,-0.513725,-0.85098,-0.101961,0,72,f7180
2026-05-22T02:38:01.549+00:00,1779417481550017000,517,R,7597,7847,9111,10326,7597,7847,9111,10326,19144,23423,18391,22113,-130,-217,-26,-0.509804,-0.85098,-0.101961,0,72,07180
2026-05-22T02:38:01.550+00:00,1779417481550150000,518,R,7598,7845,9112,10328,7598,7845,9112,10328,19144,23425,18394,22114,-131,-217,-25,-0.513725,-0.85098,-0.098039,0,72,17180
2026-05-22T02:38:01.550+00:00,1779417481550223000,519,R,7599,7845,9112,10330,7599,7845,9112,10330,19142,23425,18394,22114,-130,-218,-26,-0.509804,-0.854902,-0.101961,0,72,27180
2026-05-22T02:38:01.550+00:00,1779417481550289000,520,R,7608,7852,9120,10337,7608,7852,9120,10337,19152,23431,18397,22119,-132,-219,-27,-0.517647,-0.858824,-0.105882,0,72,a7250
2026-05-22T02:38:01.550+00:00,1779417481550361000,521,R,7605,7850,9115,10336,7605,7850,9115,10336,19152,23432,18393,22119,-131,-220,-26,-0.513725,-0.862745,-0.101961,0,72,b7250
2026-05-22T02:38:01.550+00:00,1779417481550428000,522,R,7609,7851,9121,10340,7609,7851,9121,10340,19156,23436,18395,22125,-130,-218,-26,-0.509804,-0.854902,-0.101961,0,72,c7250
2026-05-22T02:38:01.703+00:00,1779417481703258000,523,R,7611,7853,9125,10340,7611,7853,9125,10340,19159,23443,18396,22126,-129,-218,-26,-0.505882,-0.854902,-0.101961,0,72,d7250
2026-05-22T02:38:01.703+00:00,1779417481703381000,524,R,7612,7852,9126,10343,7612,7852,9126,10343,19159,23443,18395,22124,-130,-218,-26,-0.509804,-0.854902,-0.101961,0,72,e7250
2026-05-22T02:38:01.703+00:00,1779417481703453000,525,R,7608,7850,9116,10342,7608,7850,9116,10342,19152,23424,18391,22129,-129,-220,-27,-0.505882,-0.862745,-0.105882,0,71,67320
2026-05-22T02:38:01.703+00:00,1779417481703749000,526,R,7608,7853,9111,10346,7608,7853,9111,10346,19151,23421,18390,22128,-128,-220,-26,-0.501961,-0.862745,-0.101961,0,71,77320
2026-05-22T02:38:01.703+00:00,1779417481703819000,527,R,7605,7845,9108,10334,7605,7845,9108,10334,19146,23412,18384,22121,-129,-218,-26,-0.505882,-0.854902,-0.101961,0,71,87320
2026-05-22T02:38:01.852+00:00,1779417481852836000,528,R,7603,7842,9103,10330,7603,7842,9103,10330,19140,23408,18382,22116,-129,-216,-27,-0.505882,-0.847059,-0.105882,0,71,97320
2026-05-22T02:38:01.852+00:00,1779417481852985000,529,R,7598,7839,9102,10328,7598,7839,9102,10328,19140,23403,18378,22116,-128,-222,-24,-0.501961,-0.870588,-0.094118,0,71,a7320
2026-05-22T02:38:01.853+00:00,1779417481853060000,530,R,7584,7840,9088,10328,7584,7840,9088,10328,19113,23380,18377,22115,-131,-216,-25,-0.513725,-0.847059,-0.098039,0,71,17380
2026-05-22T02:38:01.853+00:00,1779417481853124000,531,R,7585,7839,9089,10328,7585,7839,9089,10328,19112,23380,18379,22118,-130,-217,-25,-0.509804,-0.85098,-0.098039,0,71,27380
2026-05-22T02:38:01.853+00:00,1779417481853187000,532,R,7578,7839,9090,10322,7578,7839,9090,10322,19108,23378,18377,22111,-131,-221,-24,-0.513725,-0.866667,-0.094118,0,71,37380
2026-05-22T02:38:02.003+00:00,1779417482003319000,533,R,7583,7841,9087,10322,7583,7841,9087,10322,19104,23381,18378,22114,-133,-218,-25,-0.521569,-0.854902,-0.098039,0,71,47380
2026-05-22T02:38:02.003+00:00,1779417482003458000,534,R,7582,7840,9089,10321,7582,7840,9089,10321,19108,23382,18377,22110,-135,-218,-24,-0.529412,-0.854902,-0.094118,0,71,57380
2026-05-22T02:38:02.003+00:00,1779417482003532000,535,R,7585,7838,9085,10313,7585,7838,9085,10313,19110,23374,18374,22100,-131,-220,-26,-0.513725,-0.862745,-0.101961,0,71,67380
2026-05-22T02:38:02.003+00:00,1779417482003598000,536,R,7587,7827,9093,10311,7587,7827,9093,10311,19122,23379,18356,22087,-130,-216,-24,-0.509804,-0.847059,-0.094118,0,71,e7450
2026-05-22T02:38:02.003+00:00,1779417482003661000,537,R,7586,7826,9088,10304,7586,7826,9088,10304,19124,23381,18358,22089,-131,-217,-22,-0.513725,-0.85098,-0.086275,0,71,f7450
2026-05-22T02:38:02.152+00:00,1779417482152470000,538,R,7587,7828,9092,10309,7587,7828,9092,10309,19117,23385,18361,22084,-133,-218,-21,-0.521569,-0.854902,-0.082353,0,71,07450
2026-05-22T02:38:02.152+00:00,1779417482152597000,539,R,7584,7832,9094,10307,7584,7832,9094,10307,19115,23389,18358,22085,-130,-218,-21,-0.509804,-0.854902,-0.082353,0,71,17450
2026-05-22T02:38:02.152+00:00,1779417482152669000,540,R,7585,7832,9095,10309,7585,7832,9095,10309,19114,23389,18362,22083,-129,-218,-21,-0.505882,-0.854902,-0.082353,0,71,27450
2026-05-22T02:38:02.152+00:00,1779417482152735000,541,R,7567,7852,9098,10319,7567,7852,9098,10319,19081,23402,18397,22091,-132,-217,-24,-0.517647,-0.85098,-0.094118,0,71,a7520
2026-05-22T02:38:02.152+00:00,1779417482152798000,542,R,7567,7860,9097,10329,7567,7860,9097,10329,19080,23400,18399,22096,-132,-221,-24,-0.517647,-0.866667,-0.094118,0,71,b7520
2026-05-22T02:38:02.152+00:00,1779417482152861000,543,R,7568,7857,9096,10322,7568,7857,9096,10322,19079,23397,18406,22097,-131,-223,-24,-0.513725,-0.87451,-0.094118,0,71,c7520
2026-05-22T02:38:02.302+00:00,1779417482302838000,544,R,7566,7854,9093,10323,7566,7854,9093,10323,19078,23396,18400,22094,-129,-220,-25,-0.505882,-0.862745,-0.098039,0,71,d7520
2026-05-22T02:38:02.302+00:00,1779417482302991000,545,R,7570,7855,9097,10321,7570,7855,9097,10321,19084,23399,18400,22093,-128,-220,-25,-0.501961,-0.862745,-0.098039,0,71,e7520
2026-05-22T02:38:02.303+00:00,1779417482303065000,546,R,7566,7849,9109,10323,7566,7849,9109,10323,19094,23423,18387,22084,-134,-217,-21,-0.52549,-0.85098,-0.082353,0,71,67590
2026-05-22T02:38:02.303+00:00,1779417482303130000,547,R,7565,7849,9110,10321,7565,7849,9110,10321,19094,23426,18386,22088,-133,-216,-23,-0.521569,-0.847059,-0.090196,0,71,77590
2026-05-22T02:38:02.303+00:00,1779417482303193000,548,R,7568,7849,9111,10324,7568,7849,9111,10324,19094,23426,18387,22087,-131,-215,-23,-0.513725,-0.843137,-0.090196,0,71,87590
2026-05-22T02:38:02.599+00:00,1779417482599833000,549,R,7571,7850,9112,10323,7571,7850,9112,10323,19096,23429,18387,22087,-132,-216,-22,-0.517647,-0.847059,-0.086275,0,71,97590
2026-05-22T02:38:02.599+00:00,1779417482599976000,550,R,7569,7851,9111,10326,7569,7851,9111,10326,19097,23430,18388,22089,-130,-217,-23,-0.509804,-0.85098,-0.090196,0,71,a7590
2026-05-22T02:38:02.600+00:00,1779417482600062000,551,R,7571,7855,9114,10332,7571,7855,9114,10332,19094,23440,18389,22095,-131,-219,-24,-0.513725,-0.858824,-0.094118,0,71,07640
2026-05-22T02:38:02.600+00:00,1779417482600129000,552,R,7567,7857,9115,10333,7567,7857,9115,10333,19098,23443,18390,22096,-131,-219,-25,-0.513725,-0.858824,-0.098039,0,71,17640
2026-05-22T02:38:02.600+00:00,1779417482600195000,553,R,7570,7857,9117,10334,7570,7857,9117,10334,19097,23442,18396,22096,-130,-219,-24,-0.509804,-0.858824,-0.094118,0,70,27640
2026-05-22T02:38:02.749+00:00,1779417482749725000,554,R,7570,7856,9118,10334,7570,7856,9118,10334,19095,23442,18394,22097,-131,-220,-24,-0.513725,-0.862745,-0.094118,0,70,37640
2026-05-22T02:38:02.749+00:00,1779417482749851000,555,R,7568,7858,9118,10336,7568,7858,9118,10336,19095,23448,18393,22100,-130,-219,-25,-0.509804,-0.858824,-0.098039,0,70,47640
2026-05-22T02:38:02.749+00:00,1779417482749925000,556,R,7571,7856,9119,10336,7571,7856,9119,10336,19096,23448,18394,22096,-130,-217,-24,-0.509804,-0.85098,-0.094118,0,70,57640
2026-05-22T02:38:02.749+00:00,1779417482749990000,557,R,7567,7855,9117,10323,7567,7855,9117,10323,19085,23439,18392,22085,-128,-220,-25,-0.501961,-0.862745,-0.098039,0,70,e7720
2026-05-22T02:38:02.750+00:00,1779417482750053000,558,R,7564,7856,9115,10319,7564,7856,9115,10319,19080,23440,18394,22078,-125,-219,-25,-0.490196,-0.858824,-0.098039,0,70,f7720
2026-05-22T02:38:02.901+00:00,1779417482901054000,559,R,7561,7855,9113,10318,7561,7855,9113,10318,19073,23439,18393,22074,-127,-217,-25,-0.498039,-0.85098,-0.098039,0,70,07720
2026-05-22T02:38:02.901+00:00,1779417482901198000,560,R,7560,7857,9113,10316,7560,7857,9113,10316,19071,23435,18392,22073,-128,-217,-25,-0.501961,-0.85098,-0.098039,0,70,17720
2026-05-22T02:38:02.901+00:00,1779417482901271000,561,R,7559,7857,9113,10315,7559,7857,9113,10315,19066,23435,18395,22076,-136,-219,-22,-0.533333,-0.858824,-0.086275,0,70,27720
2026-05-22T02:38:02.901+00:00,1779417482901337000,562,R,7566,7842,9108,10312,7566,7842,9108,10312,19071,23423,18372,22075,-135,-217,-25,-0.529412,-0.85098,-0.098039,0,70,97780
2026-05-22T02:38:02.901+00:00,1779417482901399000,563,R,7571,7842,9109,10313,7571,7842,9109,10313,19076,23413,18371,22076,-137,-216,-27,-0.537255,-0.847059,-0.105882,0,70,a7780
2026-05-22T02:38:02.901+00:00,1779417482901461000,564,R,7576,7838,9106,10312,7576,7838,9106,10312,19078,23412,18363,22078,-134,-218,-28,-0.52549,-0.854902,-0.109804,0,70,b7780
2026-05-22T02:38:03.048+00:00,1779417483048840000,565,R,7574,7836,9102,10309,7574,7836,9102,10309,19085,23404,18360,22073,-130,-220,-28,-0.509804,-0.862745,-0.109804,0,70,c7780
2026-05-22T02:38:03.048+00:00,1779417483048953000,566,R,7577,7837,9102,10309,7577,7837,9102,10309,19084,23401,18359,22075,-129,-220,-27,-0.505882,-0.862745,-0.105882,0,70,d7780
2026-05-22T02:38:03.049+00:00,1779417483049055000,567,R,7589,7832,9103,10308,7589,7832,9103,10308,19105,23390,18354,22073,-137,-217,-29,-0.537255,-0.85098,-0.113725,0,70,57850
2026-05-22T02:38:03.049+00:00,1779417483049122000,568,R,7591,7834,9102,10308,7591,7834,9102,10308,19108,23389,18349,22074,-131,-215,-26,-0.513725,-0.843137,-0.101961,0,70,67850
2026-05-22T02:38:03.049+00:00,1779417483049186000,569,R,7592,7831,9104,10307,7592,7831,9104,10307,19111,23389,18350,22071,-129,-219,-27,-0.505882,-0.858824,-0.105882,0,70,77850
2026-05-22T02:38:03.200+00:00,1779417483200479000,570,R,7596,7831,9105,10306,7596,7831,9105,10306,19111,23396,18354,22073,-128,-217,-26,-0.501961,-0.85098,-0.101961,0,70,87850
2026-05-22T02:38:03.200+00:00,1779417483200630000,571,R,7594,7832,9105,10311,7594,7832,9105,10311,19114,23396,18347,22072,-130,-218,-27,-0.509804,-0.854902,-0.105882,0,70,97850
2026-05-22T02:38:03.200+00:00,1779417483200709000,572,R,7591,7831,9106,10312,7591,7831,9106,10312,19108,23396,18347,22077,-131,-218,-25,-0.513725,-0.854902,-0.098039,0,70,07910
2026-05-22T02:38:03.200+00:00,1779417483200976000,573,R,7591,7834,9110,10313,7591,7834,9110,10313,19112,23402,18351,22074,-132,-218,-26,-0.517647,-0.854902,-0.101961,0,70,17910
2026-05-22T02:38:03.201+00:00,1779417483201048000,574,R,7592,7835,9111,10314,7592,7835,9111,10314,19110,23402,18353,22073,-130,-217,-26,-0.509804,-0.85098,-0.101961,0,70,27910
2026-05-22T02:38:03.349+00:00,1779417483349194000,575,R,7592,7836,9110,10315,7592,7836,9110,10315,19109,23398,18357,22079,-130,-216,-27,-0.509804,-0.847059,-0.105882,0,70,37910
2026-05-22T02:38:03.349+00:00,1779417483349333000,576,R,7594,7840,9110,10316,7594,7840,9110,10316,19111,23400,18357,22075,-129,-218,-26,-0.505882,-0.854902,-0.101961,0,70,47910
2026-05-22T02:38:03.349+00:00,1779417483349407000,577,R,7595,7842,9109,10318,7595,7842,9109,10318,19112,23402,18359,22076,-131,-216,-27,-0.513725,-0.847059,-0.105882,0,70,57910
2026-05-22T02:38:03.349+00:00,1779417483349471000,578,R,7609,7856,9117,10327,7609,7856,9117,10327,19135,23402,18385,22089,-127,-218,-25,-0.498039,-0.854902,-0.098039,0,70,b7960
2026-05-22T02:38:03.349+00:00,1779417483349534000,579,R,7614,7857,9116,10329,7614,7857,9116,10329,19140,23402,18384,22090,-125,-218,-26,-0.490196,-0.854902,-0.101961,0,70,c7960
2026-05-22T02:38:03.349+00:00,1779417483349596000,580,R,7613,7857,9117,10330,7613,7857,9117,10330,19145,23400,18388,22092,-128,-217,-27,-0.501961,-0.85098,-0.105882,0,70,d7960
2026-05-22T02:38:03.501+00:00,1779417483501379000,581,R,7617,7859,9118,10331,7617,7859,9118,10331,19150,23401,18390,22096,-124,-216,-27,-0.486275,-0.847059,-0.105882,0,70,e7960
2026-05-22T02:38:03.501+00:00,1779417483501542000,582,R,7619,7858,9118,10331,7619,7858,9118,10331,19149,23397,18385,22090,-128,-216,-26,-0.501961,-0.847059,-0.101961,0,70,f7960
2026-05-22T02:38:03.501+00:00,1779417483501618000,583,R,7652,7863,9108,10347,7652,7863,9108,10347,19211,23360,18390,22119,-136,-215,-33,-0.533333,-0.843137,-0.129412,0,70,78030
2026-05-22T02:38:03.501+00:00,1779417483501683000,584,R,7664,7863,9103,10350,7664,7863,9103,10350,19224,23344,18392,22129,-140,-216,-35,-0.54902,-0.847059,-0.137255,0,70,88030
2026-05-22T02:38:03.501+00:00,1779417483501746000,585,R,7673,7862,9100,10356,7673,7862,9100,10356,19246,23331,18389,22140,-140,-215,-38,-0.54902,-0.843137,-0.14902,0,70,98030
2026-05-22T02:38:03.650+00:00,1779417483650992000,586,R,7686,7860,9094,10361,7686,7860,9094,10361,19267,23308,18387,22154,-139,-212,-39,-0.545098,-0.831373,-0.152941,0,70,a8030
2026-05-22T02:38:03.651+00:00,1779417483651136000,587,R,7698,7857,9089,10367,7698,7857,9089,10367,19292,23287,18385,22168,-132,-216,-40,-0.517647,-0.847059,-0.156863,0,70,b8030
2026-05-22T02:38:03.651+00:00,1779417483651210000,588,R,7677,7847,9046,10375,7677,7847,9046,10375,19268,23212,18367,22214,-128,-223,-41,-0.501961,-0.87451,-0.160784,0,70,28090
2026-05-22T02:38:03.651+00:00,1779417483651277000,589,R,7656,7836,9044,10362,7656,7836,9044,10362,19223,23217,18357,22194,-127,-221,-43,-0.498039,-0.866667,-0.168627,0,70,38090
2026-05-22T02:38:03.651+00:00,1779417483651341000,590,R,7642,7831,9051,10351,7642,7831,9051,10351,19198,23236,18355,22171,-130,-209,-46,-0.509804,-0.819608,-0.180392,0,70,48090
2026-05-22T02:38:03.799+00:00,1779417483800001000,591,R,7631,7834,9057,10343,7631,7834,9057,10343,19177,23258,18351,22150,-137,-204,-42,-0.537255,-0.8,-0.164706,0,70,58090
2026-05-22T02:38:03.800+00:00,1779417483800155000,592,R,7627,7838,9066,10339,7627,7838,9066,10339,19170,23292,18358,22139,-139,-212,-35,-0.545098,-0.831373,-0.137255,0,70,68090
2026-05-22T02:38:03.800+00:00,1779417483800233000,593,R,7622,7843,9078,10340,7622,7843,9078,10340,19161,23315,18360,22131,-137,-207,-36,-0.537255,-0.811765,-0.141176,0,70,78090
2026-05-22T02:38:03.800+00:00,1779417483800301000,594,R,7634,7855,9113,10326,7634,7855,9113,10326,19184,23375,18375,22079,-138,-212,-42,-0.541176,-0.831373,-0.164706,0,70,18180
2026-05-22T02:38:03.800+00:00,1779417483800367000,595,R,7638,7859,9112,10328,7638,7859,9112,10328,19195,23377,18379,22084,-140,-210,-42,-0.54902,-0.823529,-0.164706,0,70,28180
2026-05-22T02:38:03.949+00:00,1779417483949893000,596,R,7647,7860,9116,10331,7647,7860,9116,10331,19209,23374,18384,22088,-139,-212,-39,-0.545098,-0.831373,-0.152941,0,70,38180
2026-05-22T02:38:03.950+00:00,1779417483950055000,597,R,7659,7865,9120,10338,7659,7865,9120,10338,19228,23374,18394,22102,-143,-216,-36,-0.560784,-0.847059,-0.141176,0,70,48180
2026-05-22T02:38:03.950+00:00,1779417483950129000,598,R,7672,7869,9120,10344,7672,7869,9120,10344,19254,23363,18398,22109,-139,-214,-38,-0.545098,-0.839216,-0.14902,0,70,58180
2026-05-22T02:38:03.950+00:00,1779417483950195000,599,R,7793,7858,9103,10419,7793,7858,9103,10419,19469,23263,18380,22281,-132,-212,-40,-0.517647,-0.831373,-0.156863,0,70,d8250
2026-05-22T02:38:03.950+00:00,1779417483950257000,600,R,7788,7852,9088,10412,7788,7852,9088,10412,19465,23244,18374,22287,-127,-216,-38,-0.498039,-0.847059,-0.14902,0,70,e8250
2026-05-22T02:38:03.950+00:00,1779417483950544000,601,R,7768,7855,9076,10408,7768,7855,9076,10408,19440,23226,18377,22280,-124,-220,-36,-0.486275,-0.862745,-0.141176,0,70,f8250
2026-05-22T02:38:04.099+00:00,1779417484099323000,602,R,7731,7854,9053,10399,7731,7854,9053,10399,19374,23204,18381,22261,-139,-226,-37,-0.545098,-0.886275,-0.145098,0,70,08250
2026-05-22T02:38:04.099+00:00,1779417484099485000,603,R,7691,7850,9030,10386,7691,7850,9030,10386,19303,23178,18382,22246,-142,-225,-36,-0.556863,-0.882353,-0.141176,0,70,18250
2026-05-22T02:38:04.099+00:00,1779417484099561000,604,R,7636,7848,9097,10343,7636,7848,9097,10343,19181,23338,18365,22128,-137,-217,-34,-0.537255,-0.85098,-0.133333,0,70,98320
2026-05-22T02:38:04.099+00:00,1779417484099628000,605,R,7638,7852,9108,10348,7638,7852,9108,10348,19181,23355,18366,22128,-136,-219,-35,-0.533333,-0.858824,-0.137255,0,70,a8320
2026-05-22T02:38:04.099+00:00,1779417484099692000,606,R,7636,7852,9116,10347,7636,7852,9116,10347,19182,23369,18367,22120,-133,-217,-37,-0.521569,-0.85098,-0.145098,0,70,b8320
2026-05-22T02:38:04.249+00:00,1779417484249825000,607,R,7637,7850,9122,10350,7637,7850,9122,10350,19181,23379,18369,22123,-129,-216,-39,-0.505882,-0.847059,-0.152941,0,70,c8320
2026-05-22T02:38:04.249+00:00,1779417484249962000,608,R,7638,7849,9127,10352,7638,7849,9127,10352,19180,23392,18371,22125,-128,-218,-39,-0.501961,-0.854902,-0.152941,0,70,d8320
2026-05-22T02:38:04.250+00:00,1779417484250036000,609,R,7643,7856,9148,10361,7643,7856,9148,10361,19188,23432,18370,22125,-132,-218,-35,-0.517647,-0.854902,-0.137255,0,70,58390
2026-05-22T02:38:04.250+00:00,1779417484250103000,610,R,7654,7852,9159,10359,7654,7852,9159,10359,19190,23431,18373,22133,-130,-216,-35,-0.509804,-0.847059,-0.137255,0,70,68390
2026-05-22T02:38:04.250+00:00,1779417484250168000,611,R,7645,7854,9149,10361,7645,7854,9149,10361,19192,23440,18369,22126,-131,-216,-34,-0.513725,-0.847059,-0.133333,0,70,78390
2026-05-22T02:38:04.400+00:00,1779417484400395000,612,R,7648,7858,9154,10364,7648,7858,9154,10364,19194,23444,18368,22129,-130,-215,-34,-0.509804,-0.843137,-0.133333,0,70,88390
2026-05-22T02:38:04.400+00:00,1779417484400427000,613,R,7646,7857,9154,10363,7646,7857,9154,10363,19191,23444,18373,22132,-130,-215,-34,-0.509804,-0.843137,-0.133333,0,69,98390
2026-05-22T02:38:04.400+00:00,1779417484400443000,614,R,7646,7860,9157,10364,7646,7860,9157,10364,19188,23447,18376,22131,-132,-217,-33,-0.517647,-0.85098,-0.129412,0,69,a8390
2026-05-22T02:38:04.400+00:00,1779417484400457000,615,R,7650,7864,9162,10374,7650,7864,9162,10374,19192,23460,18376,22137,-133,-216,-32,-0.521569,-0.847059,-0.12549,0,69,18450
2026-05-22T02:38:04.400+00:00,1779417484400470000,616,R,7650,7863,9157,10366,7650,7863,9157,10366,19195,23460,18385,22138,-132,-218,-32,-0.517647,-0.854902,-0.12549,0,69,28450
2026-05-22T02:38:04.550+00:00,1779417484550459000,617,R,7651,7862,9162,10375,7651,7862,9162,10375,19193,23457,18380,22141,-131,-217,-33,-0.513725,-0.85098,-0.129412,0,69,38450
2026-05-22T02:38:04.550+00:00,1779417484550494000,618,R,7649,7862,9159,10371,7649,7862,9159,10371,19193,23457,18377,22133,-132,-218,-32,-0.517647,-0.854902,-0.12549,0,69,48450
2026-05-22T02:38:04.550+00:00,1779417484550510000,619,R,7647,7861,9157,10366,7647,7861,9157,10366,19190,23453,18377,22131,-137,-216,-33,-0.537255,-0.847059,-0.129412,0,69,58450
2026-05-22T02:38:04.550+00:00,1779417484550524000,620,R,7616,7864,9137,10340,7616,7864,9137,10340,19148,23429,18389,22089,-133,-214,-29,-0.521569,-0.839216,-0.113725,0,69,d8520
2026-05-22T02:38:04.550+00:00,1779417484550538000,621,R,7613,7866,9131,10343,7613,7866,9131,10343,19152,23433,18394,22092,-133,-214,-31,-0.521569,-0.839216,-0.121569,0,69,e8520
2026-05-22T02:38:04.550+00:00,1779417484550550000,622,R,7614,7867,9135,10339,7614,7867,9135,10339,19147,23432,18393,22086,-133,-217,-31,-0.521569,-0.85098,-0.121569,0,69,f8520
2026-05-22T02:38:04.700+00:00,1779417484700435000,623,R,7614,7868,9133,10338,7614,7868,9133,10338,19146,23424,18396,22084,-131,-214,-32,-0.513725,-0.839216,-0.12549,0,69,08520
2026-05-22T02:38:04.700+00:00,1779417484700466000,624,R,7616,7868,9130,10337,7616,7868,9130,10337,19148,23421,18396,22082,-133,-216,-33,-0.521569,-0.847059,-0.129412,0,69,18520
2026-05-22T02:38:04.700+00:00,1779417484700485000,625,R,7624,7872,9130,10339,7624,7872,9130,10339,19169,23409,18407,22088,-135,-216,-34,-0.529412,-0.847059,-0.133333,0,69,98590
2026-05-22T02:38:04.700+00:00,1779417484700501000,626,R,7636,7870,9141,10344,7636,7870,9141,10344,19177,23411,18403,22092,-134,-215,-35,-0.52549,-0.843137,-0.137255,0,69,a8590
2026-05-22T02:38:04.700+00:00,1779417484700517000,627,R,7632,7876,9130,10342,7632,7876,9130,10342,19185,23410,18407,22093,-131,-215,-35,-0.513725,-0.843137,-0.137255,0,69,b8590
2026-05-22T02:38:04.849+00:00,1779417484849875000,628,R,7634,7878,9130,10345,7634,7878,9130,10345,19189,23403,18407,22096,-132,-214,-35,-0.517647,-0.839216,-0.137255,0,69,c8590
2026-05-22T02:38:04.849+00:00,1779417484850011000,629,R,7639,7875,9128,10347,7639,7875,9128,10347,19194,23400,18405,22100,-132,-216,-33,-0.517647,-0.847059,-0.129412,0,69,d8590
2026-05-22T02:38:04.850+00:00,1779417484850084000,630,R,7608,7846,9120,10332,7608,7846,9120,10332,19141,23394,18361,22086,-136,-200,-40,-0.533333,-0.784314,-0.156863,0,69,38640
2026-05-22T02:38:04.850+00:00,1779417484850151000,631,R,7609,7846,9124,10333,7609,7846,9124,10333,19138,23403,18362,22084,-140,-210,-30,-0.54902,-0.823529,-0.117647,0,69,48640
2026-05-22T02:38:04.850+00:00,1779417484850215000,632,R,7611,7846,9124,10333,7611,7846,9124,10333,19140,23400,18363,22089,-139,-214,-30,-0.545098,-0.839216,-0.117647,0,69,58640
2026-05-22T02:38:04.999+00:00,1779417484999170000,633,R,7616,7852,9126,10338,7616,7852,9126,10338,19137,23405,18362,22090,-139,-216,-30,-0.545098,-0.847059,-0.117647,0,69,68640
2026-05-22T02:38:04.999+00:00,1779417484999308000,634,R,7618,7850,9130,10340,7618,7850,9130,10340,19146,23407,18360,22095,-135,-219,-31,-0.529412,-0.858824,-0.121569,0,69,78640
2026-05-22T02:38:04.999+00:00,1779417484999381000,635,R,7617,7850,9132,10340,7617,7850,9132,10340,19147,23407,18364,22098,-132,-217,-33,-0.517647,-0.85098,-0.129412,0,69,88640
2026-05-22T02:38:04.999+00:00,1779417484999446000,636,R,7630,7857,9144,10354,7630,7857,9144,10354,19161,23423,18369,22113,-134,-217,-31,-0.52549,-0.85098,-0.121569,0,69,18720
2026-05-22T02:38:04.999+00:00,1779417484999509000,637,R,7625,7856,9139,10358,7625,7856,9139,10358,19160,23424,18371,22112,-133,-216,-30,-0.521569,-0.847059,-0.117647,0,69,28720
2026-05-22T02:38:05.149+00:00,1779417485149830000,638,R,7629,7855,9143,10354,7629,7855,9143,10354,19161,23428,18371,22118,-134,-216,-31,-0.52549,-0.847059,-0.121569,0,69,38720
2026-05-22T02:38:05.149+00:00,1779417485149964000,639,R,7631,7858,9145,10356,7631,7858,9145,10356,19163,23429,18370,22115,-132,-217,-31,-0.517647,-0.85098,-0.121569,0,69,48720
2026-05-22T02:38:05.150+00:00,1779417485150037000,640,R,7630,7856,9147,10358,7630,7856,9147,10358,19162,23434,18372,22119,-130,-216,-30,-0.509804,-0.847059,-0.117647,0,69,58720
2026-05-22T02:38:05.150+00:00,1779417485150103000,641,R,7636,7863,9156,10363,7636,7863,9156,10363,19167,23451,18378,22128,-133,-217,-29,-0.521569,-0.85098,-0.113725,0,69,d8790
2026-05-22T02:38:05.150+00:00,1779417485150167000,642,R,7633,7864,9159,10366,7633,7864,9159,10366,19172,23450,18375,22123,-131,-217,-30,-0.513725,-0.85098,-0.117647,0,69,e8790
2026-05-22T02:38:05.150+00:00,1779417485150229000,643,R,7635,7864,9156,10364,7635,7864,9156,10364,19169,23450,18380,22128,-132,-217,-30,-0.517647,-0.85098,-0.117647,0,69,f8790
2026-05-22T02:38:05.300+00:00,1779417485300811000,644,R,7637,7866,9156,10366,7637,7866,9156,10366,19170,23455,18377,22125,-132,-216,-30,-0.517647,-0.847059,-0.117647,0,69,08790
2026-05-22T02:38:05.300+00:00,1779417485300864000,645,R,7636,7862,9157,10369,7636,7862,9157,10369,19172,23453,18377,22127,-133,-218,-30,-0.521569,-0.854902,-0.117647,0,69,18790
2026-05-22T02:38:05.300+00:00,1779417485300881000,646,R,7633,7863,9154,10363,7633,7863,9154,10363,19165,23451,18379,22124,-131,-217,-31,-0.513725,-0.85098,-0.121569,0,69,88850
2026-05-22T02:38:05.300+00:00,1779417485300896000,647,R,7627,7863,9152,10361,7627,7863,9152,10361,19160,23451,18378,22119,-132,-219,-29,-0.517647,-0.858824,-0.113725,0,69,98850
2026-05-22T02:38:05.300+00:00,1779417485300985000,648,R,7625,7860,9149,10356,7625,7860,9149,10356,19152,23443,18377,22114,-132,-217,-29,-0.517647,-0.85098,-0.113725,0,69,a8850
2026-05-22T02:38:05.450+00:00,1779417485450582000,649,R,7620,7861,9145,10352,7620,7861,9145,10352,19149,23444,18380,22113,-130,-215,-30,-0.509804,-0.843137,-0.117647,0,69,b8850
2026-05-22T02:38:05.450+00:00,1779417485450632000,650,R,7615,7859,9142,10350,7615,7859,9142,10350,19142,23443,18380,22107,-131,-213,-31,-0.513725,-0.835294,-0.121569,0,69,c8850
2026-05-22T02:38:05.450+00:00,1779417485450659000,651,R,7598,7861,9132,10338,7598,7861,9132,10338,19116,23430,18383,22090,-132,-217,-30,-0.517647,-0.85098,-0.117647,0,69,38910
2026-05-22T02:38:05.450+00:00,1779417485450682000,652,R,7597,7860,9131,10334,7597,7860,9131,10334,19112,23430,18380,22086,-133,-217,-30,-0.521569,-0.85098,-0.117647,0,69,48910
2026-05-22T02:38:05.450+00:00,1779417485450704000,653,R,7594,7858,9132,10336,7594,7858,9132,10336,19112,23429,18383,22085,-133,-217,-30,-0.521569,-0.85098,-0.117647,0,69,58910
2026-05-22T02:38:05.602+00:00,1779417485602193000,654,R,7592,7856,9128,10334,7592,7856,9128,10334,19106,23425,18381,22084,-133,-217,-31,-0.521569,-0.85098,-0.121569,0,69,68910
2026-05-22T02:38:05.602+00:00,1779417485602333000,655,R,7591,7856,9130,10333,7591,7856,9130,10333,19105,23427,18378,22085,-133,-218,-30,-0.521569,-0.854902,-0.117647,0,69,78910
2026-05-22T02:38:05.602+00:00,1779417485602407000,656,R,7590,7856,9126,10331,7590,7856,9126,10331,19103,23422,18383,22082,-132,-216,-31,-0.517647,-0.847059,-0.121569,0,69,88910
2026-05-22T02:38:05.602+00:00,1779417485602473000,657,R,7587,7856,9127,10333,7587,7856,9127,10333,19094,23418,18375,22081,-131,-217,-31,-0.513725,-0.85098,-0.121569,0,69,08980
2026-05-22T02:38:05.602+00:00,1779417485602536000,658,R,7584,7855,9127,10334,7584,7855,9127,10334,19091,23422,18375,22081,-131,-216,-31,-0.513725,-0.847059,-0.121569,0,69,18980
2026-05-22T02:38:05.752+00:00,1779417485752360000,659,R,7584,7854,9127,10334,7584,7854,9127,10334,19090,23420,18375,22084,-133,-218,-30,-0.521569,-0.854902,-0.117647,0,69,28980
2026-05-22T02:38:05.752+00:00,1779417485752515000,660,R,7587,7857,9125,10332,7587,7857,9125,10332,19091,23421,18375,22083,-131,-219,-31,-0.513725,-0.858824,-0.121569,0,69,38980
2026-05-22T02:38:05.752+00:00,1779417485752589000,661,R,7583,7854,9127,10332,7583,7854,9127,10332,19090,23421,18377,22084,-131,-216,-30,-0.513725,-0.847059,-0.117647,0,69,48980
2026-05-22T02:38:05.752+00:00,1779417485752654000,662,R,7587,7860,9125,10338,7587,7860,9125,10338,19093,23417,18387,22088,-132,-217,-29,-0.517647,-0.85098,-0.113725,0,69,c9050
2026-05-22T02:38:05.752+00:00,1779417485752720000,663,R,7587,7864,9124,10340,7587,7864,9124,10340,19095,23417,18387,22088,-133,-217,-28,-0.521569,-0.85098,-0.109804,0,69,d9050
2026-05-22T02:38:05.752+00:00,1779417485752783000,664,R,7587,7863,9126,10337,7587,7863,9126,10337,19094,23422,18389,22086,-133,-216,-30,-0.521569,-0.847059,-0.117647,0,69,e9050
2026-05-22T02:38:05.902+00:00,1779417485902738000,665,R,7589,7867,9128,10341,7589,7867,9128,10341,19099,23418,18392,22088,-133,-217,-29,-0.521569,-0.85098,-0.113725,0,69,f9050
2026-05-22T02:38:05.902+00:00,1779417485902873000,666,R,7591,7870,9127,10339,7591,7870,9127,10339,19100,23416,18396,22086,-132,-215,-30,-0.517647,-0.843137,-0.117647,0,69,09050
2026-05-22T02:38:05.902+00:00,1779417485902943000,667,R,7620,7884,9140,10354,7620,7884,9140,10354,19153,23419,18413,22099,-134,-217,-29,-0.52549,-0.85098,-0.113725,0,69,89120
2026-05-22T02:38:05.903+00:00,1779417485903008000,668,R,7625,7887,9140,10356,7625,7887,9140,10356,19163,23429,18417,22102,-130,-220,-29,-0.509804,-0.862745,-0.113725,0,69,99120
2026-05-22T02:38:05.903+00:00,1779417485903071000,669,R,7629,7889,9145,10359,7629,7889,9145,10359,19170,23429,18414,22100,-127,-218,-30,-0.498039,-0.854902,-0.117647,0,69,a9120
2026-05-22T02:38:06.053+00:00,1779417486053236000,670,R,7632,7887,9146,10364,7632,7887,9146,10364,19181,23427,18417,22106,-131,-213,-34,-0.513725,-0.835294,-0.133333,0,69,b9120
2026-05-22T02:38:06.053+00:00,1779417486053355000,671,R,7636,7887,9145,10363,7636,7887,9145,10363,19185,23427,18417,22108,-129,-214,-32,-0.505882,-0.839216,-0.12549,0,69,c9120
2026-05-22T02:38:06.053+00:00,1779417486053427000,672,R,7609,7853,9133,10350,7609,7853,9133,10350,19136,23413,18370,22104,-140,-194,-43,-0.54902,-0.760784,-0.168627,0,69,49190
2026-05-22T02:38:06.053+00:00,1779417486053492000,673,R,7615,7857,9138,10352,7615,7857,9138,10352,19138,23417,18372,22106,-136,-213,-30,-0.533333,-0.835294,-0.117647,0,69,59190
2026-05-22T02:38:06.053+00:00,1779417486053556000,674,R,7619,7859,9137,10355,7619,7859,9137,10355,19142,23417,18377,22112,-138,-218,-26,-0.541176,-0.854902,-0.101961,0,69,69190
