host_time_iso,host_time_unix_ns,sample_index,record_type,ir1,ir2,ir3,ir4,ir1_repeat,ir2_repeat,ir3_repeat,ir4_repeat,red1,red2,red3,red4,accel_x_raw,accel_y_raw,accel_z_raw,accel_x_g,accel_y_g,accel_z_g,reserved,heart_rate,debug
2026-05-19T04:45:32.570+00:00,1779165932570307000,1,R,8762,8507,9246,10147,8762,8507,9246,10147,23717,24894,19688,21473,77,-243,-6,0.301961,-0.952941,-0.023529,0,75,600
2026-05-19T04:45:32.570+00:00,1779165932570698000,2,R,8764,8514,9244,10160,8764,8514,9244,10160,23716,24899,19691,21480,76,-244,-7,0.298039,-0.956863,-0.027451,0,75,700
2026-05-19T04:45:32.570+00:00,1779165932570719000,3,R,8765,8512,9245,10157,8765,8512,9245,10157,23720,24895,19692,21479,78,-244,-6,0.305882,-0.956863,-0.023529,0,75,800
2026-05-19T04:45:32.570+00:00,1779165932570735000,4,R,8765,8514,9244,10156,8765,8514,9244,10156,23718,24901,19691,21481,76,-243,-6,0.298039,-0.952941,-0.023529,0,75,900
2026-05-19T04:45:32.570+00:00,1779165932570757000,5,R,8766,8515,9249,10157,8766,8515,9249,10157,23719,24898,19692,21482,76,-243,-6,0.298039,-0.952941,-0.023529,0,75,a00
2026-05-19T04:45:32.570+00:00,1779165932570771000,6,R,8768,8516,9244,10163,8768,8516,9244,10163,23720,24897,19695,21486,74,-242,-6,0.290196,-0.94902,-0.023529,0,75,b00
2026-05-19T04:45:32.719+00:00,1779165932719554000,7,R,8768,8517,9247,10160,8768,8517,9247,10160,23718,24901,19693,21481,74,-242,-6,0.290196,-0.94902,-0.023529,0,75,c00
2026-05-19T04:45:32.719+00:00,1779165932719752000,8,R,8771,8517,9251,10165,8771,8517,9251,10165,23721,24904,19695,21486,74,-242,-6,0.290196,-0.94902,-0.023529,0,75,d00
2026-05-19T04:45:32.719+00:00,1779165932719863000,9,R,8771,8520,9250,10166,8771,8520,9250,10166,23723,24903,19697,21487,74,-244,-6,0.290196,-0.956863,-0.023529,0,75,e00
2026-05-19T04:45:32.719+00:00,1779165932719947000,10,R,8769,8518,9249,10164,8769,8518,9249,10164,23721,24901,19694,21487,75,-243,-8,0.294118,-0.952941,-0.031373,0,75,f00
2026-05-19T04:45:32.720+00:00,1779165932720015000,11,R,8772,8516,9250,10164,8772,8516,9250,10164,23725,24899,19692,21481,75,-243,-7,0.294118,-0.952941,-0.027451,0,75,000
2026-05-19T04:45:33.164+00:00,1779165933164253000,12,R,8770,8514,9249,10163,8770,8514,9249,10163,23728,24902,19694,21484,74,-245,-7,0.290196,-0.960784,-0.027451,0,75,100
2026-05-19T04:45:33.164+00:00,1779165933164309000,13,R,8767,8511,9241,10160,8767,8511,9241,10160,23721,24898,19687,21482,75,-246,-8,0.294118,-0.964706,-0.031373,0,75,200
2026-05-19T04:45:33.164+00:00,1779165933164334000,14,R,8765,8510,9240,10153,8765,8510,9240,10153,23719,24893,19685,21474,72,-245,-8,0.282353,-0.960784,-0.031373,0,75,300
2026-05-19T04:45:33.164+00:00,1779165933164354000,15,R,8762,8505,9238,10151,8762,8505,9238,10151,23716,24888,19683,21471,74,-244,-7,0.290196,-0.956863,-0.027451,0,75,400
2026-05-19T04:45:33.164+00:00,1779165933164372000,16,R,8764,8505,9240,10144,8764,8505,9240,10144,23717,24899,19686,21480,74,-243,-8,0.290196,-0.952941,-0.031373,0,75,500
2026-05-19T04:45:33.171+00:00,1779165933171152000,17,R,8762,8508,9237,10148,8762,8508,9237,10148,23714,24890,19684,21477,75,-243,-8,0.294118,-0.952941,-0.031373,0,75,600
2026-05-19T04:45:33.171+00:00,1779165933171173000,18,R,8759,8504,9235,10146,8759,8504,9235,10146,23712,24884,19682,21472,75,-242,-7,0.294118,-0.94902,-0.027451,0,75,700
2026-05-19T04:45:33.171+00:00,1779165933171209000,19,R,8760,8504,9237,10146,8760,8504,9237,10146,23711,24888,19680,21468,74,-243,-6,0.290196,-0.952941,-0.023529,0,75,800
2026-05-19T04:45:33.171+00:00,1779165933171229000,20,R,8760,8502,9240,10145,8760,8502,9240,10145,23714,24887,19682,21472,73,-243,-7,0.286275,-0.952941,-0.027451,0,75,900
2026-05-19T04:45:33.171+00:00,1779165933171247000,21,R,8760,8505,9239,10151,8760,8505,9239,10151,23707,24890,19682,21470,74,-243,-7,0.290196,-0.952941,-0.027451,0,75,a00
2026-05-19T04:45:33.171+00:00,1779165933171265000,22,R,8756,8502,9235,10146,8756,8502,9235,10146,23705,24888,19680,21467,75,-242,-7,0.294118,-0.94902,-0.027451,0,75,b00
2026-05-19T04:45:33.320+00:00,1779165933320613000,23,R,8756,8504,9234,10147,8756,8504,9234,10147,23706,24882,19679,21467,75,-242,-7,0.294118,-0.94902,-0.027451,0,75,c00
2026-05-19T04:45:33.320+00:00,1779165933320757000,24,R,8755,8503,9233,10142,8755,8503,9233,10142,23707,24881,19678,21466,75,-243,-8,0.294118,-0.952941,-0.031373,0,75,d00
2026-05-19T04:45:33.320+00:00,1779165933320836000,25,R,8758,8506,9239,10154,8758,8506,9239,10154,23702,24886,19678,21472,75,-243,-7,0.294118,-0.952941,-0.027451,0,75,e00
2026-05-19T04:45:33.320+00:00,1779165933320906000,26,R,8755,8502,9234,10142,8755,8502,9234,10142,23708,24886,19680,21467,76,-245,-8,0.298039,-0.960784,-0.031373,0,75,f00
2026-05-19T04:45:33.320+00:00,1779165933320974000,27,R,8755,8502,9232,10143,8755,8502,9232,10143,23700,24876,19675,21465,74,-245,-7,0.290196,-0.960784,-0.027451,0,75,000
2026-05-19T04:45:33.469+00:00,1779165933469554000,28,R,8757,8501,9233,10143,8757,8501,9233,10143,23703,24883,19679,21472,73,-243,-7,0.286275,-0.952941,-0.027451,0,75,100
2026-05-19T04:45:33.469+00:00,1779165933469659000,29,R,8754,8503,9234,10143,8754,8503,9234,10143,23702,24879,19679,21462,73,-244,-7,0.286275,-0.956863,-0.027451,0,75,200
2026-05-19T04:45:33.469+00:00,1779165933469701000,30,R,8755,8499,9233,10143,8755,8499,9233,10143,23702,24884,19680,21458,72,-243,-7,0.282353,-0.952941,-0.027451,0,75,300
2026-05-19T04:45:33.469+00:00,1779165933469739000,31,R,8753,8503,9234,10142,8753,8503,9234,10142,23699,24878,19674,21460,74,-243,-7,0.290196,-0.952941,-0.027451,0,75,400
2026-05-19T04:45:33.469+00:00,1779165933469776000,32,R,8755,8502,9233,10146,8755,8502,9233,10146,23697,24878,19675,21461,76,-243,-7,0.298039,-0.952941,-0.027451,0,75,500
2026-05-19T04:45:33.469+00:00,1779165933469811000,33,R,8753,8498,9233,10141,8753,8498,9233,10141,23702,24886,19680,21468,74,-245,-7,0.290196,-0.960784,-0.027451,0,75,600
2026-05-19T04:45:33.768+00:00,1779165933768696000,34,R,8754,8505,9237,10146,8754,8505,9237,10146,23701,24878,19678,21462,75,-245,-6,0.294118,-0.960784,-0.023529,0,75,700
2026-05-19T04:45:33.768+00:00,1779165933768865000,35,R,8751,8500,9228,10141,8751,8500,9228,10141,23702,24883,19678,21460,73,-244,-6,0.286275,-0.956863,-0.023529,0,75,800
2026-05-19T04:45:33.768+00:00,1779165933768949000,36,R,8755,8501,9235,10144,8755,8501,9235,10144,23699,24877,19677,21467,75,-243,-6,0.294118,-0.952941,-0.023529,0,75,900
2026-05-19T04:45:33.769+00:00,1779165933769150000,37,R,8755,8503,9232,10145,8755,8503,9232,10145,23697,24877,19676,21463,76,-243,-5,0.298039,-0.952941,-0.019608,0,75,a00
2026-05-19T04:45:33.769+00:00,1779165933769280000,38,R,8752,8500,9227,10135,8752,8500,9227,10135,23701,24887,19681,21471,76,-242,-5,0.298039,-0.94902,-0.019608,0,75,b00
2026-05-19T04:45:34.064+00:00,1779165934064965000,39,R,8755,8501,9232,10142,8755,8501,9232,10142,23699,24883,19681,21465,76,-242,-5,0.298039,-0.94902,-0.019608,0,75,c00
2026-05-19T04:45:34.065+00:00,1779165934065136000,40,R,8755,8503,9234,10146,8755,8503,9234,10146,23698,24873,19677,21463,76,-244,-6,0.298039,-0.956863,-0.023529,0,75,d00
2026-05-19T04:45:34.065+00:00,1779165934065212000,41,R,8756,8501,9231,10144,8756,8501,9231,10144,23703,24884,19679,21462,76,-243,-4,0.298039,-0.952941,-0.015686,0,76,e00
2026-05-19T04:45:34.065+00:00,1779165934065292000,42,R,8755,8500,9232,10144,8755,8500,9232,10144,23697,24878,19677,21464,76,-243,-5,0.298039,-0.952941,-0.019608,0,76,f00
2026-05-19T04:45:34.065+00:00,1779165934065370000,43,R,8754,8503,9233,10144,8754,8503,9233,10144,23703,24886,19681,21466,75,-243,-5,0.294118,-0.952941,-0.019608,0,76,000
2026-05-19T04:45:34.071+00:00,1779165934071696000,44,R,8752,8503,9237,10148,8752,8503,9237,10148,23701,24888,19681,21470,75,-244,-6,0.294118,-0.956863,-0.023529,0,76,100
2026-05-19T04:45:34.071+00:00,1779165934071788000,45,R,8752,8504,9233,10146,8752,8504,9233,10146,23702,24884,19679,21469,75,-244,-6,0.294118,-0.956863,-0.023529,0,76,200
2026-05-19T04:45:34.071+00:00,1779165934071877000,46,R,8758,8502,9237,10145,8758,8502,9237,10145,23703,24881,19682,21468,75,-244,-6,0.294118,-0.956863,-0.023529,0,76,300
2026-05-19T04:45:34.071+00:00,1779165934071952000,47,R,8756,8507,9234,10149,8756,8507,9234,10149,23704,24888,19683,21466,76,-244,-5,0.298039,-0.956863,-0.019608,0,76,400
2026-05-19T04:45:34.072+00:00,1779165934072073000,48,R,8758,8506,9237,10146,8758,8506,9237,10146,23703,24881,19683,21468,75,-243,-5,0.294118,-0.952941,-0.019608,0,76,500
2026-05-19T04:45:34.072+00:00,1779165934072163000,49,R,8757,8507,9239,10151,8757,8507,9239,10151,23701,24878,19685,21471,74,-243,-6,0.290196,-0.952941,-0.023529,0,76,600
2026-05-19T04:45:34.219+00:00,1779165934219418000,50,R,8758,8507,9238,10151,8758,8507,9238,10151,23704,24888,19683,21477,74,-243,-5,0.290196,-0.952941,-0.019608,0,76,700
2026-05-19T04:45:34.219+00:00,1779165934219571000,51,R,8757,8507,9236,10150,8757,8507,9236,10150,23706,24885,19682,21473,74,-243,-5,0.290196,-0.952941,-0.019608,0,76,800
2026-05-19T04:45:34.219+00:00,1779165934219664000,52,R,8760,8510,9235,10153,8760,8510,9235,10153,23706,24886,19685,21475,76,-243,-5,0.298039,-0.952941,-0.019608,0,76,900
2026-05-19T04:45:34.219+00:00,1779165934219736000,53,R,8759,8506,9235,10145,8759,8506,9235,10145,23710,24887,19685,21472,74,-244,-5,0.290196,-0.956863,-0.019608,0,76,a00
2026-05-19T04:45:34.219+00:00,1779165934219802000,54,R,8760,8507,9237,10155,8760,8507,9237,10155,23709,24885,19683,21474,75,-244,-6,0.294118,-0.956863,-0.023529,0,76,b00
2026-05-19T04:45:34.369+00:00,1779165934369146000,55,R,8759,8509,9241,10154,8759,8509,9241,10154,23713,24886,19686,21471,75,-244,-6,0.294118,-0.956863,-0.023529,0,76,c00
2026-05-19T04:45:34.369+00:00,1779165934369252000,56,R,8761,8510,9238,10154,8761,8510,9238,10154,23710,24889,19689,21475,75,-242,-5,0.294118,-0.94902,-0.019608,0,76,d00
2026-05-19T04:45:34.369+00:00,1779165934369305000,57,R,8760,8510,9244,10152,8760,8510,9244,10152,23711,24889,19683,21474,75,-243,-5,0.294118,-0.952941,-0.019608,0,76,e00
2026-05-19T04:45:34.369+00:00,1779165934369359000,58,R,8763,8508,9244,10166,8763,8508,9244,10166,23710,24895,19689,21480,76,-243,-5,0.298039,-0.952941,-0.019608,0,76,f00
2026-05-19T04:45:34.369+00:00,1779165934369405000,59,R,8760,8512,9242,10155,8760,8512,9242,10155,23714,24891,19685,21475,76,-243,-5,0.298039,-0.952941,-0.019608,0,76,000
2026-05-19T04:45:34.519+00:00,1779165934519164000,60,R,8764,8511,9241,10158,8764,8511,9241,10158,23714,24890,19690,21482,76,-243,-5,0.298039,-0.952941,-0.019608,0,76,100
2026-05-19T04:45:34.519+00:00,1779165934519279000,61,R,8766,8514,9241,10159,8766,8514,9241,10159,23717,24886,19691,21478,76,-243,-5,0.298039,-0.952941,-0.019608,0,76,200
2026-05-19T04:45:34.519+00:00,1779165934519354000,62,R,8763,8513,9247,10156,8763,8513,9247,10156,23714,24890,19690,21476,76,-243,-5,0.298039,-0.952941,-0.019608,0,76,300
2026-05-19T04:45:34.519+00:00,1779165934519406000,63,R,8764,8515,9246,10159,8764,8515,9246,10159,23716,24897,19686,21477,76,-244,-5,0.298039,-0.956863,-0.019608,0,76,400
2026-05-19T04:45:34.519+00:00,1779165934519452000,64,R,8766,8515,9244,10161,8766,8515,9244,10161,23716,24896,19692,21485,75,-243,-5,0.294118,-0.952941,-0.019608,0,76,500
2026-05-19T04:45:34.519+00:00,1779165934519500000,65,R,8767,8514,9249,10163,8767,8514,9249,10163,23720,24898,19690,21485,75,-244,-5,0.294118,-0.956863,-0.019608,0,76,600
2026-05-19T04:45:34.669+00:00,1779165934669202000,66,R,8768,8515,9248,10160,8768,8515,9248,10160,23720,24899,19691,21487,75,-243,-5,0.294118,-0.952941,-0.019608,0,76,700
2026-05-19T04:45:34.669+00:00,1779165934669287000,67,R,8768,8516,9247,10165,8768,8516,9247,10165,23725,24905,19696,21490,75,-243,-5,0.294118,-0.952941,-0.019608,0,76,800
2026-05-19T04:45:34.669+00:00,1779165934669320000,68,R,8772,8516,9248,10160,8772,8516,9248,10160,23724,24903,19693,21491,75,-242,-5,0.294118,-0.94902,-0.019608,0,76,900
2026-05-19T04:45:34.669+00:00,1779165934669347000,69,R,8771,8519,9250,10165,8771,8519,9250,10165,23721,24901,19693,21482,75,-243,-6,0.294118,-0.952941,-0.023529,0,76,a00
2026-05-19T04:45:34.669+00:00,1779165934669373000,70,R,8771,8518,9249,10163,8771,8518,9249,10163,23724,24903,19699,21494,74,-243,-5,0.290196,-0.952941,-0.019608,0,76,b00
2026-05-19T04:45:34.820+00:00,1779165934820596000,71,R,8771,8518,9248,10163,8771,8518,9248,10163,23727,24905,19693,21486,73,-243,-6,0.286275,-0.952941,-0.023529,0,76,c00
2026-05-19T04:45:34.820+00:00,1779165934820705000,72,R,8775,8520,9252,10167,8775,8520,9252,10167,23726,24901,19698,21490,76,-241,-8,0.298039,-0.945098,-0.031373,0,76,d00
2026-05-19T04:45:34.820+00:00,1779165934820741000,73,R,8772,8515,9250,10164,8772,8515,9250,10164,23730,24904,19695,21492,75,-244,-7,0.294118,-0.956863,-0.027451,0,76,e00
2026-05-19T04:45:34.820+00:00,1779165934820773000,74,R,8773,8516,9249,10164,8773,8516,9249,10164,23729,24898,19693,21484,75,-245,-6,0.294118,-0.960784,-0.023529,0,76,f00
2026-05-19T04:45:34.820+00:00,1779165934820800000,75,R,8769,8514,9246,10161,8769,8514,9246,10161,23725,24890,19690,21485,75,-245,-6,0.294118,-0.960784,-0.023529,0,76,000
2026-05-19T04:45:34.821+00:00,1779165934821062000,76,R,8770,8512,9243,10156,8770,8512,9243,10156,23724,24893,19687,21477,75,-245,-6,0.294118,-0.960784,-0.023529,0,76,100
2026-05-19T04:45:35.268+00:00,1779165935268688000,77,R,8769,8509,9247,10152,8769,8509,9247,10152,23721,24892,19686,21476,75,-243,-6,0.294118,-0.952941,-0.023529,0,76,200
2026-05-19T04:45:35.268+00:00,1779165935268763000,78,R,8766,8509,9239,10154,8766,8509,9239,10154,23722,24893,19684,21476,76,-243,-6,0.298039,-0.952941,-0.023529,0,76,300
2026-05-19T04:45:35.268+00:00,1779165935268795000,79,R,8764,8508,9240,10153,8764,8508,9240,10153,23722,24895,19686,21472,77,-242,-6,0.301961,-0.94902,-0.023529,0,76,400
2026-05-19T04:45:35.268+00:00,1779165935268822000,80,R,8763,8506,9243,10152,8763,8506,9243,10152,23714,24887,19680,21469,76,-242,-5,0.298039,-0.94902,-0.019608,0,76,500
2026-05-19T04:45:35.268+00:00,1779165935268848000,81,R,8763,8506,9238,10152,8763,8506,9238,10152,23720,24887,19686,21468,75,-242,-6,0.294118,-0.94902,-0.023529,0,76,600
2026-05-19T04:45:35.416+00:00,1779165935416853000,82,R,8763,8505,9238,10148,8763,8505,9238,10148,23711,24882,19676,21470,75,-242,-6,0.294118,-0.94902,-0.023529,0,76,700
2026-05-19T04:45:35.416+00:00,1779165935416976000,83,R,8766,8503,9238,10149,8766,8503,9238,10149,23713,24886,19681,21470,76,-243,-6,0.298039,-0.952941,-0.023529,0,76,800
2026-05-19T04:45:35.417+00:00,1779165935417033000,84,R,8762,8506,9238,10149,8762,8506,9238,10149,23712,24887,19676,21467,76,-241,-7,0.298039,-0.945098,-0.027451,0,76,900
2026-05-19T04:45:35.417+00:00,1779165935417085000,85,R,8762,8506,9237,10149,8762,8506,9237,10149,23710,24881,19678,21465,75,-242,-7,0.294118,-0.94902,-0.027451,0,76,a00
2026-05-19T04:45:35.417+00:00,1779165935417133000,86,R,8759,8502,9235,10145,8759,8502,9235,10145,23707,24882,19674,21466,75,-243,-7,0.294118,-0.952941,-0.027451,0,76,b00
2026-05-19T04:45:35.566+00:00,1779165935566973000,87,R,8762,8504,9237,10147,8762,8504,9237,10147,23710,24881,19680,21469,76,-244,-7,0.298039,-0.956863,-0.027451,0,76,c00
2026-05-19T04:45:35.567+00:00,1779165935567091000,88,R,8757,8504,9236,10149,8757,8504,9236,10149,23712,24886,19677,21464,75,-245,-7,0.294118,-0.960784,-0.027451,0,76,d00
2026-05-19T04:45:35.567+00:00,1779165935567145000,89,R,8758,8505,9238,10148,8758,8505,9238,10148,23709,24877,19679,21466,76,-244,-6,0.298039,-0.956863,-0.023529,0,76,e00
2026-05-19T04:45:35.567+00:00,1779165935567191000,90,R,8761,8503,9236,10146,8761,8503,9236,10146,23708,24883,19677,21463,75,-244,-6,0.294118,-0.956863,-0.023529,0,76,f00
2026-05-19T04:45:35.567+00:00,1779165935567238000,91,R,8759,8502,9235,10146,8759,8502,9235,10146,23708,24879,19678,21465,75,-245,-5,0.294118,-0.960784,-0.019608,0,76,000
2026-05-19T04:45:35.567+00:00,1779165935567283000,92,R,8759,8500,9237,10147,8759,8500,9237,10147,23712,24885,19676,21464,75,-243,-6,0.294118,-0.952941,-0.023529,0,76,100
2026-05-19T04:45:35.718+00:00,1779165935718100000,93,R,8758,8504,9236,10149,8758,8504,9236,10149,23710,24885,19680,21466,76,-242,-6,0.298039,-0.94902,-0.023529,0,76,200
2026-05-19T04:45:35.718+00:00,1779165935718230000,94,R,8760,8503,9236,10147,8760,8503,9236,10147,23710,24881,19679,21466,74,-245,-6,0.290196,-0.960784,-0.023529,0,76,300
2026-05-19T04:45:35.718+00:00,1779165935718308000,95,R,8760,8505,9236,10153,8760,8505,9236,10153,23705,24879,19676,21462,75,-244,-5,0.294118,-0.956863,-0.019608,0,76,400
2026-05-19T04:45:35.718+00:00,1779165935718376000,96,R,8760,8502,9236,10145,8760,8502,9236,10145,23709,24885,19677,21467,75,-244,-5,0.294118,-0.956863,-0.019608,0,76,500
2026-05-19T04:45:35.718+00:00,1779165935718453000,97,R,8760,8504,9237,10150,8760,8504,9237,10150,23709,24880,19676,21463,78,-243,-5,0.305882,-0.952941,-0.019608,0,76,600
2026-05-19T04:45:35.866+00:00,1779165935866582000,98,R,8758,8503,9235,10148,8758,8503,9235,10148,23708,24882,19676,21464,77,-243,-6,0.301961,-0.952941,-0.023529,0,76,700
2026-05-19T04:45:35.866+00:00,1779165935866746000,99,R,8759,8501,9234,10147,8759,8501,9234,10147,23711,24891,19678,21468,77,-243,-6,0.301961,-0.952941,-0.023529,0,76,800
2026-05-19T04:45:35.866+00:00,1779165935866821000,100,R,8761,8505,9236,10146,8761,8505,9236,10146,23705,24877,19679,21461,77,-243,-5,0.301961,-0.952941,-0.019608,0,76,900
2026-05-19T04:45:35.866+00:00,1779165935866890000,101,R,8760,8504,9239,10149,8760,8504,9239,10149,23711,24888,19679,21467,76,-242,-5,0.298039,-0.94902,-0.019608,0,76,a00
2026-05-19T04:45:35.866+00:00,1779165935866954000,102,R,8758,8504,9238,10145,8758,8504,9238,10145,23708,24885,19679,21468,77,-243,-5,0.301961,-0.952941,-0.019608,0,76,b00
2026-05-19T04:45:36.017+00:00,1779165936017818000,103,R,8759,8504,9235,10147,8759,8504,9235,10147,23711,24881,19683,21472,76,-242,-6,0.298039,-0.94902,-0.023529,0,76,c00
2026-05-19T04:45:36.017+00:00,1779165936017881000,104,R,8758,8505,9235,10148,8758,8505,9235,10148,23709,24883,19679,21467,76,-243,-6,0.298039,-0.952941,-0.023529,0,78,d00
2026-05-19T04:45:36.017+00:00,1779165936017912000,105,R,8758,8504,9233,10146,8758,8504,9233,10146,23709,24880,19677,21461,77,-242,-4,0.301961,-0.94902,-0.015686,0,78,e00
2026-05-19T04:45:36.017+00:00,1779165936017939000,106,R,8759,8504,9243,10148,8759,8504,9243,10148,23707,24891,19680,21465,75,-243,-6,0.294118,-0.952941,-0.023529,0,75,52300
2026-05-19T04:45:36.017+00:00,1779165936017964000,107,R,8761,8506,9245,10150,8761,8506,9245,10150,23703,24883,19676,21459,75,-243,-6,0.294118,-0.952941,-0.023529,0,75,62300
2026-05-19T04:45:36.017+00:00,1779165936017988000,108,R,8759,8507,9241,10150,8759,8507,9241,10150,23706,24890,19679,21462,74,-244,-6,0.290196,-0.956863,-0.023529,0,76,72300
2026-05-19T04:45:36.167+00:00,1779165936167575000,109,R,8760,8509,9246,10153,8760,8509,9246,10153,23704,24884,19681,21467,75,-244,-6,0.294118,-0.956863,-0.023529,0,76,82300
2026-05-19T04:45:36.167+00:00,1779165936167609000,110,R,8757,8509,9241,10151,8757,8509,9241,10151,23703,24887,19681,21470,75,-244,-6,0.294118,-0.956863,-0.023529,0,76,92300
2026-05-19T04:45:36.167+00:00,1779165936167626000,111,R,8760,8506,9245,10151,8760,8506,9245,10151,23703,24893,19682,21462,77,-243,-6,0.301961,-0.952941,-0.023529,0,76,f2350
2026-05-19T04:45:36.167+00:00,1779165936167641000,112,R,8760,8510,9247,10151,8760,8510,9247,10151,23707,24891,19681,21464,74,-244,-5,0.290196,-0.956863,-0.019608,0,76,02350
2026-05-19T04:45:36.167+00:00,1779165936167655000,113,R,8761,8508,9248,10151,8761,8508,9248,10151,23704,24892,19685,21472,75,-243,-5,0.294118,-0.952941,-0.019608,0,76,12350
2026-05-19T04:45:36.318+00:00,1779165936319002000,114,R,8762,8509,9246,10154,8762,8509,9246,10154,23704,24889,19685,21470,75,-242,-6,0.294118,-0.94902,-0.023529,0,76,22350
2026-05-19T04:45:36.319+00:00,1779165936319135000,115,R,8760,8510,9241,10150,8760,8510,9241,10150,23706,24893,19684,21467,74,-244,-5,0.290196,-0.956863,-0.019608,0,76,32350
2026-05-19T04:45:36.319+00:00,1779165936319211000,116,R,8764,8514,9248,10156,8764,8514,9248,10156,23714,24902,19687,21474,75,-242,-7,0.294118,-0.94902,-0.027451,0,76,b2420
2026-05-19T04:45:36.319+00:00,1779165936319286000,117,R,8768,8516,9249,10167,8768,8516,9249,10167,23714,24902,19687,21478,75,-242,-6,0.294118,-0.94902,-0.023529,0,76,c2420
2026-05-19T04:45:36.319+00:00,1779165936319352000,118,R,8766,8515,9249,10159,8766,8515,9249,10159,23713,24895,19687,21477,76,-243,-5,0.298039,-0.952941,-0.019608,0,76,d2420
2026-05-19T04:45:36.468+00:00,1779165936468256000,119,R,8767,8515,9252,10158,8767,8515,9252,10158,23718,24896,19689,21478,76,-243,-5,0.298039,-0.952941,-0.019608,0,76,e2420
2026-05-19T04:45:36.468+00:00,1779165936468451000,120,R,8769,8516,9254,10160,8769,8516,9254,10160,23719,24903,19693,21478,76,-244,-6,0.298039,-0.956863,-0.023529,0,76,f2420
2026-05-19T04:45:36.468+00:00,1779165936468571000,121,R,8769,8515,9254,10163,8769,8515,9254,10163,23716,24902,19690,21477,77,-243,-6,0.301961,-0.952941,-0.023529,0,76,02420
2026-05-19T04:45:36.468+00:00,1779165936468651000,122,R,8772,8520,9254,10164,8772,8520,9254,10164,23722,24906,19694,21478,75,-244,-7,0.294118,-0.956863,-0.027451,0,76,62470
2026-05-19T04:45:36.468+00:00,1779165936468722000,123,R,8773,8520,9256,10166,8773,8520,9256,10166,23727,24916,19697,21483,76,-243,-6,0.298039,-0.952941,-0.023529,0,76,72470
2026-05-19T04:45:36.616+00:00,1779165936616359000,124,R,8773,8522,9257,10167,8773,8522,9257,10167,23727,24908,19695,21484,74,-242,-6,0.290196,-0.94902,-0.023529,0,76,82470
2026-05-19T04:45:36.616+00:00,1779165936616472000,125,R,8775,8524,9259,10171,8775,8524,9259,10171,23726,24908,19696,21482,75,-243,-6,0.294118,-0.952941,-0.023529,0,76,92470
2026-05-19T04:45:36.616+00:00,1779165936616546000,126,R,8776,8521,9259,10170,8776,8521,9259,10170,23728,24908,19700,21484,74,-243,-6,0.290196,-0.952941,-0.023529,0,76,a2470
2026-05-19T04:45:36.616+00:00,1779165936616612000,127,R,8771,8515,9253,10160,8771,8515,9253,10160,23728,24904,19688,21480,75,-243,-6,0.294118,-0.952941,-0.023529,0,76,12530
2026-05-19T04:45:36.616+00:00,1779165936616678000,128,R,8772,8512,9258,10157,8772,8512,9258,10157,23724,24898,19686,21476,75,-243,-6,0.294118,-0.952941,-0.023529,0,76,22530
2026-05-19T04:45:36.616+00:00,1779165936616740000,129,R,8769,8512,9249,10155,8769,8512,9249,10155,23722,24896,19683,21467,75,-243,-5,0.294118,-0.952941,-0.019608,0,76,32530
2026-05-19T04:45:36.768+00:00,1779165936768046000,130,R,8772,8514,9247,10158,8772,8514,9247,10158,23718,24896,19681,21467,75,-243,-5,0.294118,-0.952941,-0.019608,0,76,42530
2026-05-19T04:45:36.768+00:00,1779165936768098000,131,R,8767,8508,9247,10150,8767,8508,9247,10150,23722,24904,19686,21473,74,-242,-6,0.290196,-0.94902,-0.023529,0,76,52530
2026-05-19T04:45:36.768+00:00,1779165936768119000,132,R,8763,8506,9247,10146,8763,8506,9247,10146,23715,24898,19680,21463,75,-245,-6,0.294118,-0.960784,-0.023529,0,76,c2590
2026-05-19T04:45:36.768+00:00,1779165936768136000,133,R,8763,8503,9247,10145,8763,8503,9247,10145,23710,24893,19677,21461,76,-245,-6,0.298039,-0.960784,-0.023529,0,76,d2590
2026-05-19T04:45:36.768+00:00,1779165936768155000,134,R,8762,8504,9246,10143,8762,8504,9246,10143,23710,24890,19677,21464,76,-244,-6,0.298039,-0.956863,-0.023529,0,76,e2590
2026-05-19T04:45:36.918+00:00,1779165936918349000,135,R,8759,8504,9243,10148,8759,8504,9243,10148,23707,24891,19679,21460,74,-244,-5,0.290196,-0.956863,-0.019608,0,76,f2590
2026-05-19T04:45:36.918+00:00,1779165936918539000,136,R,8761,8508,9243,10145,8761,8508,9243,10145,23707,24888,19677,21460,74,-243,-5,0.290196,-0.952941,-0.019608,0,76,02590
2026-05-19T04:45:36.918+00:00,1779165936918633000,137,R,8761,8508,9245,10148,8761,8508,9245,10148,23711,24893,19678,21463,76,-243,-6,0.298039,-0.952941,-0.023529,0,76,82660
2026-05-19T04:45:36.918+00:00,1779165936918707000,138,R,8763,8507,9244,10149,8763,8507,9244,10149,23706,24892,19679,21461,75,-243,-5,0.294118,-0.952941,-0.019608,0,76,92660
2026-05-19T04:45:36.918+00:00,1779165936918774000,139,R,8764,8505,9246,10148,8764,8505,9246,10148,23710,24893,19682,21463,74,-243,-5,0.290196,-0.952941,-0.019608,0,76,a2660
2026-05-19T04:45:37.217+00:00,1779165937217892000,140,R,8761,8505,9244,10149,8761,8505,9244,10149,23709,24892,19682,21465,75,-243,-5,0.294118,-0.952941,-0.019608,0,76,b2660
2026-05-19T04:45:37.217+00:00,1779165937217939000,141,R,8758,8501,9244,10141,8758,8501,9244,10141,23708,24891,19678,21461,74,-244,-6,0.290196,-0.956863,-0.023529,0,76,c2660
2026-05-19T04:45:37.217+00:00,1779165937217967000,142,R,8764,8507,9246,10146,8764,8507,9246,10146,23703,24888,19679,21461,74,-244,-7,0.290196,-0.956863,-0.027451,0,76,d2660
2026-05-19T04:45:37.217+00:00,1779165937217990000,143,R,8764,8511,9251,10152,8764,8511,9251,10152,23713,24895,19681,21463,74,-243,-6,0.290196,-0.952941,-0.023529,0,76,32710
2026-05-19T04:45:37.218+00:00,1779165937218011000,144,R,8766,8510,9249,10154,8766,8510,9249,10154,23710,24883,19679,21462,76,-243,-6,0.298039,-0.952941,-0.023529,0,76,42710
2026-05-19T04:45:37.366+00:00,1779165937367026000,145,R,8766,8508,9248,10153,8766,8508,9248,10153,23714,24899,19683,21467,76,-243,-5,0.298039,-0.952941,-0.019608,0,76,52710
2026-05-19T04:45:37.367+00:00,1779165937367165000,146,R,8766,8515,9252,10155,8766,8515,9252,10155,23715,24896,19680,21457,76,-244,-5,0.298039,-0.956863,-0.019608,0,76,62710
2026-05-19T04:45:37.367+00:00,1779165937367241000,147,R,8766,8513,9249,10158,8766,8513,9249,10158,23713,24891,19684,21464,76,-243,-5,0.298039,-0.952941,-0.019608,0,76,72710
2026-05-19T04:45:37.367+00:00,1779165937367308000,148,R,8773,8516,9255,10161,8773,8516,9255,10161,23720,24896,19685,21468,76,-243,-6,0.298039,-0.952941,-0.023529,0,76,e2770
2026-05-19T04:45:37.367+00:00,1779165937367372000,149,R,8772,8516,9252,10159,8772,8516,9252,10159,23723,24905,19688,21473,76,-242,-6,0.298039,-0.94902,-0.023529,0,76,f2770
2026-05-19T04:45:37.367+00:00,1779165937367436000,150,R,8772,8517,9251,10161,8772,8517,9251,10161,23721,24906,19686,21470,77,-244,-6,0.301961,-0.956863,-0.023529,0,76,02770
2026-05-19T04:45:37.515+00:00,1779165937515883000,151,R,8773,8518,9257,10160,8773,8518,9257,10160,23726,24906,19690,21478,77,-243,-6,0.301961,-0.952941,-0.023529,0,76,12770
2026-05-19T04:45:37.515+00:00,1779165937515923000,152,R,8774,8516,9259,10164,8774,8516,9259,10164,23725,24900,19689,21480,76,-244,-6,0.298039,-0.956863,-0.023529,0,76,22770
2026-05-19T04:45:37.515+00:00,1779165937515942000,153,R,8777,8524,9261,10171,8777,8524,9261,10171,23729,24909,19695,21487,73,-243,-5,0.286275,-0.952941,-0.019608,0,76,92830
2026-05-19T04:45:37.515+00:00,1779165937515957000,154,R,8780,8523,9262,10168,8780,8523,9262,10168,23729,24903,19697,21479,74,-242,-6,0.290196,-0.94902,-0.023529,0,76,a2830
2026-05-19T04:45:37.515+00:00,1779165937515971000,155,R,8778,8522,9258,10170,8778,8522,9258,10170,23731,24907,19694,21477,75,-243,-6,0.294118,-0.952941,-0.023529,0,76,b2830
2026-05-19T04:45:37.666+00:00,1779165937667017000,156,R,8779,8518,9261,10167,8779,8518,9261,10167,23733,24911,19693,21485,77,-244,-7,0.301961,-0.956863,-0.027451,0,76,c2830
2026-05-19T04:45:37.667+00:00,1779165937667115000,157,R,8778,8519,9258,10166,8778,8519,9258,10166,23734,24908,19693,21480,75,-245,-5,0.294118,-0.960784,-0.019608,0,76,d2830
2026-05-19T04:45:37.667+00:00,1779165937667158000,158,R,8777,8515,9253,10158,8777,8515,9253,10158,23733,24902,19690,21479,75,-245,-6,0.294118,-0.960784,-0.023529,0,76,e2830
2026-05-19T04:45:37.667+00:00,1779165937667196000,159,R,8767,8508,9248,10150,8767,8508,9248,10150,23715,24897,19681,21465,75,-243,-5,0.294118,-0.952941,-0.019608,0,76,52890
2026-05-19T04:45:37.667+00:00,1779165937667233000,160,R,8765,8507,9246,10148,8765,8507,9246,10148,23718,24898,19680,21464,76,-243,-5,0.298039,-0.952941,-0.019608,0,76,62890
2026-05-19T04:45:37.963+00:00,1779165937963930000,161,R,8765,8508,9247,10147,8765,8508,9247,10147,23715,24900,19680,21460,76,-243,-5,0.298039,-0.952941,-0.019608,0,76,72890
2026-05-19T04:45:37.964+00:00,1779165937964092000,162,R,8766,8506,9250,10145,8766,8506,9250,10145,23711,24893,19677,21457,76,-243,-6,0.298039,-0.952941,-0.023529,0,76,82890
2026-05-19T04:45:37.964+00:00,1779165937964166000,163,R,8764,8507,9248,10143,8764,8507,9248,10143,23710,24891,19674,21452,77,-242,-6,0.301961,-0.94902,-0.023529,0,76,92890
2026-05-19T04:45:37.964+00:00,1779165937964241000,164,R,8761,8506,9248,10148,8761,8506,9248,10148,23709,24890,19675,21451,76,-242,-5,0.298039,-0.94902,-0.019608,0,76,02950
2026-05-19T04:45:37.964+00:00,1779165937964311000,165,R,8762,8505,9244,10147,8762,8505,9244,10147,23707,24890,19679,21463,75,-244,-5,0.294118,-0.956863,-0.019608,0,76,12950
2026-05-19T04:45:37.964+00:00,1779165937964378000,166,R,8760,8506,9245,10145,8760,8506,9245,10145,23709,24893,19679,21455,76,-244,-5,0.298039,-0.956863,-0.019608,0,76,22950
2026-05-19T04:45:37.969+00:00,1779165937969360000,167,R,8764,8504,9247,10144,8764,8504,9247,10144,23707,24886,19677,21459,76,-244,-4,0.298039,-0.956863,-0.015686,0,76,32950
2026-05-19T04:45:37.969+00:00,1779165937969442000,168,R,8762,8505,9242,10146,8762,8505,9242,10146,23705,24887,19676,21457,76,-244,-5,0.298039,-0.956863,-0.019608,0,76,42950
2026-05-19T04:45:37.969+00:00,1779165937969508000,169,R,8762,8505,9247,10146,8762,8505,9247,10146,23708,24885,19680,21460,73,-245,-6,0.286275,-0.960784,-0.023529,0,76,b3010
2026-05-19T04:45:37.969+00:00,1779165937969574000,170,R,8763,8508,9247,10147,8763,8508,9247,10147,23708,24886,19675,21450,73,-242,-5,0.286275,-0.94902,-0.019608,0,76,c3010
2026-05-19T04:45:37.969+00:00,1779165937969637000,171,R,8762,8504,9248,10148,8762,8504,9248,10148,23708,24891,19680,21461,73,-243,-6,0.286275,-0.952941,-0.023529,0,76,d3010
2026-05-19T04:45:38.120+00:00,1779165938120131000,172,R,8761,8507,9248,10149,8761,8507,9248,10149,23706,24885,19683,21466,74,-243,-6,0.290196,-0.952941,-0.023529,0,76,e3010
2026-05-19T04:45:38.120+00:00,1779165938120334000,173,R,8763,8506,9246,10148,8763,8506,9246,10148,23710,24891,19678,21456,73,-243,-5,0.286275,-0.952941,-0.019608,0,76,f3010
2026-05-19T04:45:38.120+00:00,1779165938120432000,174,R,8768,8511,9255,10155,8768,8511,9255,10155,23715,24893,19682,21460,75,-243,-6,0.294118,-0.952941,-0.023529,0,75,63070
2026-05-19T04:45:38.120+00:00,1779165938120504000,175,R,8766,8509,9251,10152,8766,8509,9251,10152,23713,24893,19682,21464,75,-244,-5,0.294118,-0.956863,-0.019608,0,75,73070
2026-05-19T04:45:38.120+00:00,1779165938120589000,176,R,8766,8511,9250,10152,8766,8511,9250,10152,23714,24892,19682,21462,75,-244,-5,0.294118,-0.956863,-0.019608,0,75,83070
2026-05-19T04:45:38.270+00:00,1779165938270451000,177,R,8770,8512,9252,10155,8770,8512,9252,10155,23714,24894,19681,21466,76,-244,-5,0.298039,-0.956863,-0.019608,0,75,93070
2026-05-19T04:45:38.270+00:00,1779165938270556000,178,R,8771,8512,9253,10155,8771,8512,9253,10155,23714,24897,19687,21469,75,-243,-5,0.294118,-0.952941,-0.019608,0,75,a3070
2026-05-19T04:45:38.270+00:00,1779165938270609000,179,R,8773,8512,9261,10161,8773,8512,9261,10161,23717,24898,19687,21467,76,-243,-5,0.298039,-0.952941,-0.019608,0,75,b3070
2026-05-19T04:45:38.270+00:00,1779165938270657000,180,R,8775,8519,9258,10159,8775,8519,9258,10159,23723,24904,19688,21472,75,-245,-5,0.294118,-0.960784,-0.019608,0,75,23130
2026-05-19T04:45:38.270+00:00,1779165938270708000,181,R,8775,8516,9255,10162,8775,8516,9255,10162,23722,24896,19688,21472,74,-245,-5,0.290196,-0.960784,-0.019608,0,75,33130
2026-05-19T04:45:38.420+00:00,1779165938420744000,182,R,8773,8519,9258,10165,8773,8519,9258,10165,23721,24904,19695,21470,75,-245,-6,0.294118,-0.960784,-0.023529,0,75,43130
2026-05-19T04:45:38.420+00:00,1779165938420883000,183,R,8775,8522,9256,10165,8775,8522,9256,10165,23722,24903,19692,21466,75,-244,-5,0.294118,-0.956863,-0.019608,0,75,53130
2026-05-19T04:45:38.420+00:00,1779165938420960000,184,R,8776,8519,9256,10164,8776,8519,9256,10164,23724,24903,19691,21470,75,-244,-5,0.294118,-0.956863,-0.019608,0,75,63130
2026-05-19T04:45:38.421+00:00,1779165938421029000,185,R,8778,8519,9257,10162,8778,8519,9257,10162,23733,24907,19691,21476,73,-245,-5,0.286275,-0.960784,-0.019608,0,75,d3190
2026-05-19T04:45:38.421+00:00,1779165938421095000,186,R,8778,8518,9256,10163,8778,8518,9256,10163,23727,24904,19688,21475,73,-246,-5,0.286275,-0.964706,-0.019608,0,75,e3190
2026-05-19T04:45:38.421+00:00,1779165938421158000,187,R,8778,8516,9253,10161,8778,8516,9253,10161,23728,24898,19685,21470,74,-245,-6,0.290196,-0.960784,-0.023529,0,75,f3190
2026-05-19T04:45:38.719+00:00,1779165938719238000,188,R,8777,8514,9256,10157,8777,8514,9256,10157,23732,24901,19685,21465,73,-243,-5,0.286275,-0.952941,-0.019608,0,75,03190
2026-05-19T04:45:38.719+00:00,1779165938719387000,189,R,8775,8513,9255,10154,8775,8513,9255,10154,23724,24895,19682,21466,74,-244,-5,0.290196,-0.956863,-0.019608,0,75,13190
2026-05-19T04:45:38.719+00:00,1779165938719463000,190,R,8767,8506,9248,10146,8767,8506,9248,10146,23710,24886,19676,21452,75,-244,-5,0.294118,-0.956863,-0.019608,0,75,83250
2026-05-19T04:45:38.719+00:00,1779165938719542000,191,R,8766,8505,9248,10145,8766,8505,9248,10145,23713,24891,19674,21453,73,-244,-5,0.286275,-0.956863,-0.019608,0,75,93250
2026-05-19T04:45:38.719+00:00,1779165938719609000,192,R,8765,8507,9248,10148,8765,8507,9248,10148,23714,24889,19676,21458,74,-245,-4,0.290196,-0.960784,-0.015686,0,75,a3250
2026-05-19T04:45:38.868+00:00,1779165938868275000,193,R,8767,8505,9246,10143,8767,8505,9246,10143,23712,24888,19679,21456,74,-244,-5,0.290196,-0.956863,-0.019608,0,75,b3250
2026-05-19T04:45:38.868+00:00,1779165938868368000,194,R,8766,8507,9247,10147,8766,8507,9247,10147,23711,24884,19675,21454,73,-244,-5,0.286275,-0.956863,-0.019608,0,75,c3250
2026-05-19T04:45:38.868+00:00,1779165938868401000,195,R,8763,8507,9247,10145,8763,8507,9247,10145,23705,24891,19677,21456,73,-243,-4,0.286275,-0.952941,-0.015686,0,75,43320
2026-05-19T04:45:38.868+00:00,1779165938868430000,196,R,8764,8505,9245,10144,8764,8505,9245,10144,23707,24888,19680,21458,74,-244,-4,0.290196,-0.956863,-0.015686,0,75,53320
2026-05-19T04:45:38.868+00:00,1779165938868457000,197,R,8764,8511,9251,10153,8764,8511,9251,10153,23703,24884,19676,21452,74,-244,-4,0.290196,-0.956863,-0.015686,0,75,63320
2026-05-19T04:45:39.018+00:00,1779165939018149000,198,R,8762,8507,9245,10146,8762,8507,9245,10146,23704,24891,19679,21453,74,-244,-4,0.290196,-0.956863,-0.015686,0,75,73320
2026-05-19T04:45:39.018+00:00,1779165939018416000,199,R,8764,8510,9248,10146,8764,8510,9248,10146,23699,24885,19678,21452,73,-244,-4,0.286275,-0.956863,-0.015686,0,75,83320
2026-05-19T04:45:39.018+00:00,1779165939018455000,200,R,8762,8509,9247,10148,8762,8509,9247,10148,23702,24885,19679,21453,73,-244,-4,0.286275,-0.956863,-0.015686,0,75,93320
2026-05-19T04:45:39.018+00:00,1779165939018484000,201,R,8762,8511,9244,10148,8762,8511,9244,10148,23702,24884,19684,21455,71,-244,-4,0.278431,-0.956863,-0.015686,0,75,f3370
2026-05-19T04:45:39.018+00:00,1779165939018510000,202,R,8764,8511,9246,10150,8764,8511,9246,10150,23704,24884,19684,21455,70,-244,-3,0.27451,-0.956863,-0.011765,0,75,03370
2026-05-19T04:45:39.167+00:00,1779165939167667000,203,R,8764,8511,9246,10149,8764,8511,9246,10149,23703,24886,19687,21455,71,-244,-4,0.278431,-0.956863,-0.015686,0,75,13370
2026-05-19T04:45:39.167+00:00,1779165939167785000,204,R,8764,8513,9247,10150,8764,8513,9247,10150,23705,24887,19684,21457,72,-245,-4,0.282353,-0.960784,-0.015686,0,75,23370
2026-05-19T04:45:39.167+00:00,1779165939167821000,205,R,8765,8513,9247,10153,8765,8513,9247,10153,23707,24883,19684,21462,72,-244,-3,0.282353,-0.956863,-0.011765,0,75,33370
2026-05-19T04:45:39.167+00:00,1779165939167853000,206,R,8769,8519,9253,10157,8769,8519,9253,10157,23712,24893,19692,21468,74,-244,-4,0.290196,-0.956863,-0.015686,0,75,a3430
2026-05-19T04:45:39.167+00:00,1779165939167883000,207,R,8771,8522,9252,10164,8771,8522,9252,10164,23712,24888,19691,21463,73,-244,-3,0.286275,-0.956863,-0.011765,0,75,b3430
2026-05-19T04:45:39.167+00:00,1779165939167913000,208,R,8768,8518,9251,10157,8768,8518,9251,10157,23712,24891,19691,21465,73,-244,-4,0.286275,-0.956863,-0.015686,0,75,c3430
2026-05-19T04:45:39.463+00:00,1779165939463984000,209,R,8769,8519,9252,10159,8769,8519,9252,10159,23713,24897,19695,21471,73,-244,-4,0.286275,-0.956863,-0.015686,0,75,d3430
2026-05-19T04:45:39.464+00:00,1779165939464515000,210,R,8770,8521,9254,10161,8770,8521,9254,10161,23717,24899,19698,21473,74,-244,-4,0.290196,-0.956863,-0.015686,0,75,e3430
2026-05-19T04:45:39.464+00:00,1779165939464614000,211,R,8773,8525,9259,10168,8773,8525,9259,10168,23720,24903,19702,21477,73,-243,-3,0.286275,-0.952941,-0.011765,0,75,53490
2026-05-19T04:45:39.464+00:00,1779165939464690000,212,R,8776,8527,9261,10168,8776,8527,9261,10168,23718,24901,19699,21477,72,-243,-4,0.282353,-0.952941,-0.015686,0,75,63490
2026-05-19T04:45:39.464+00:00,1779165939464760000,213,R,8777,8527,9261,10171,8777,8527,9261,10171,23720,24899,19700,21478,71,-243,-4,0.278431,-0.952941,-0.015686,0,75,73490
2026-05-19T04:45:39.469+00:00,1779165939469523000,214,R,8775,8527,9260,10170,8775,8527,9260,10170,23719,24904,19700,21471,72,-244,-4,0.282353,-0.956863,-0.015686,0,75,83490
2026-05-19T04:45:39.469+00:00,1779165939469609000,215,R,8778,8526,9260,10167,8778,8526,9260,10167,23724,24905,19701,21476,73,-244,-3,0.286275,-0.956863,-0.011765,0,75,93490
2026-05-19T04:45:39.469+00:00,1779165939469677000,216,R,8768,8518,9251,10155,8768,8518,9251,10155,23708,24898,19691,21468,73,-244,-4,0.286275,-0.956863,-0.015686,0,75,13560
2026-05-19T04:45:39.469+00:00,1779165939469741000,217,R,8768,8518,9255,10153,8768,8518,9255,10153,23706,24897,19693,21470,72,-243,-3,0.282353,-0.952941,-0.011765,0,75,23560
2026-05-19T04:45:39.469+00:00,1779165939469805000,218,R,8766,8514,9250,10147,8766,8514,9250,10147,23707,24895,19690,21464,71,-244,-4,0.278431,-0.956863,-0.015686,0,75,33560
2026-05-19T04:45:39.768+00:00,1779165939768576000,219,R,8763,8517,9254,10157,8763,8517,9254,10157,23706,24893,19691,21467,72,-243,-3,0.282353,-0.952941,-0.011765,0,75,43560
2026-05-19T04:45:39.768+00:00,1779165939768765000,220,R,8762,8516,9249,10154,8762,8516,9249,10154,23707,24905,19691,21462,72,-244,-3,0.282353,-0.956863,-0.011765,0,75,53560
2026-05-19T04:45:39.768+00:00,1779165939768842000,221,R,8765,8515,9251,10154,8765,8515,9251,10154,23701,24894,19694,21468,72,-244,-3,0.282353,-0.956863,-0.011765,0,75,63560
2026-05-19T04:45:39.768+00:00,1779165939768907000,222,R,8760,8510,9252,10154,8760,8510,9252,10154,23696,24895,19688,21462,71,-244,-4,0.278431,-0.956863,-0.015686,0,75,d3620
2026-05-19T04:45:39.768+00:00,1779165939768996000,223,R,8760,8518,9251,10155,8760,8518,9251,10155,23697,24889,19691,21462,72,-244,-4,0.282353,-0.956863,-0.015686,0,75,e3620
2026-05-19T04:45:40.069+00:00,1779165940069585000,224,R,8758,8515,9248,10153,8758,8515,9248,10153,23699,24892,19690,21464,73,-243,-4,0.286275,-0.952941,-0.015686,0,75,f3620
2026-05-19T04:45:40.069+00:00,1779165940069740000,225,R,8759,8518,9251,10154,8759,8518,9251,10154,23694,24892,19689,21460,72,-245,-3,0.282353,-0.960784,-0.011765,0,75,03620
2026-05-19T04:45:40.070+00:00,1779165940070089000,226,R,8759,8516,9251,10152,8759,8516,9251,10152,23695,24893,19692,21466,72,-245,-4,0.282353,-0.960784,-0.015686,0,75,13620
2026-05-19T04:45:40.070+00:00,1779165940070168000,227,R,8762,8517,9254,10157,8762,8517,9254,10157,23695,24897,19690,21460,73,-245,-4,0.286275,-0.960784,-0.015686,0,75,93690
2026-05-19T04:45:40.070+00:00,1779165940070236000,228,R,8763,8517,9254,10155,8763,8517,9254,10155,23695,24890,19690,21464,72,-244,-4,0.282353,-0.956863,-0.015686,0,75,a3690
2026-05-19T04:45:40.070+00:00,1779165940070302000,229,R,8768,8519,9262,10155,8768,8519,9262,10155,23695,24897,19696,21469,72,-245,-4,0.282353,-0.960784,-0.015686,0,75,b3690
2026-05-19T04:45:40.218+00:00,1779165940218969000,230,R,8761,8521,9254,10158,8761,8521,9254,10158,23695,24892,19695,21468,72,-244,-4,0.282353,-0.956863,-0.015686,0,75,c3690
2026-05-19T04:45:40.219+00:00,1779165940219013000,231,R,8762,8519,9256,10157,8762,8519,9256,10157,23698,24897,19698,21464,71,-244,-3,0.278431,-0.956863,-0.011765,0,75,d3690
2026-05-19T04:45:40.219+00:00,1779165940219031000,232,R,8766,8526,9259,10167,8766,8526,9259,10167,23702,24899,19697,21475,72,-243,-3,0.282353,-0.952941,-0.011765,0,75,73780
2026-05-19T04:45:40.219+00:00,1779165940219045000,233,R,8769,8528,9252,10166,8769,8528,9252,10166,23703,24907,19701,21475,73,-244,-3,0.286275,-0.956863,-0.011765,0,75,83780
2026-05-19T04:45:40.219+00:00,1779165940219058000,234,R,8767,8526,9258,10166,8767,8526,9258,10166,23706,24905,19700,21473,73,-244,-4,0.286275,-0.956863,-0.015686,0,75,93780
2026-05-19T04:45:40.369+00:00,1779165940369470000,235,R,8766,8529,9262,10170,8766,8529,9262,10170,23708,24906,19703,21475,75,-244,-4,0.294118,-0.956863,-0.015686,0,75,a3780
2026-05-19T04:45:40.369+00:00,1779165940369509000,236,R,8769,8527,9261,10167,8769,8527,9261,10167,23704,24904,19703,21474,73,-245,-4,0.286275,-0.960784,-0.015686,0,75,b3780
2026-05-19T04:45:40.369+00:00,1779165940369528000,237,R,8774,8529,9266,10172,8774,8529,9266,10172,23709,24915,19707,21485,72,-245,-3,0.282353,-0.960784,-0.011765,0,75,13830
2026-05-19T04:45:40.369+00:00,1779165940369544000,238,R,8775,8532,9266,10173,8775,8532,9266,10173,23711,24909,19710,21479,72,-245,-4,0.282353,-0.960784,-0.015686,0,75,23830
2026-05-19T04:45:40.369+00:00,1779165940369560000,239,R,8771,8534,9262,10179,8771,8534,9262,10179,23716,24906,19710,21484,73,-243,-3,0.286275,-0.952941,-0.011765,0,75,33830
2026-05-19T04:45:40.663+00:00,1779165940663870000,240,R,8775,8532,9266,10175,8775,8532,9266,10175,23716,24914,19709,21481,72,-243,-4,0.282353,-0.952941,-0.015686,0,75,43830
2026-05-19T04:45:40.664+00:00,1779165940664014000,241,R,8775,8534,9267,10179,8775,8534,9267,10179,23714,24915,19711,21487,72,-243,-3,0.282353,-0.952941,-0.011765,0,75,53830
2026-05-19T04:45:40.664+00:00,1779165940664088000,242,R,8780,8536,9269,10176,8780,8536,9269,10176,23715,24916,19711,21482,71,-245,-3,0.278431,-0.960784,-0.011765,0,75,63830
2026-05-19T04:45:40.664+00:00,1779165940664154000,243,R,8770,8521,9260,10157,8770,8521,9260,10157,23713,24916,19703,21475,72,-244,-3,0.282353,-0.956863,-0.011765,0,75,d3890
2026-05-19T04:45:40.664+00:00,1779165940664227000,244,R,8770,8521,9260,10163,8770,8521,9260,10163,23712,24904,19700,21478,73,-244,-3,0.286275,-0.956863,-0.011765,0,75,e3890
2026-05-19T04:45:40.669+00:00,1779165940669436000,245,R,8771,8523,9259,10166,8771,8523,9259,10166,23710,24908,19699,21473,71,-243,-4,0.278431,-0.952941,-0.015686,0,75,f3890
2026-05-19T04:45:40.669+00:00,1779165940669532000,246,R,8768,8523,9258,10159,8768,8523,9258,10159,23706,24908,19697,21469,71,-244,-3,0.278431,-0.956863,-0.011765,0,75,03890
2026-05-19T04:45:40.669+00:00,1779165940669606000,247,R,8767,8522,9258,10160,8767,8522,9258,10160,23703,24903,19695,21465,71,-243,-3,0.278431,-0.952941,-0.011765,0,75,13890
2026-05-19T04:45:40.669+00:00,1779165940669673000,248,R,8764,8518,9254,10155,8764,8518,9254,10155,23699,24897,19692,21465,72,-245,-4,0.282353,-0.960784,-0.015686,0,75,93960
2026-05-19T04:45:40.669+00:00,1779165940669738000,249,R,8764,8516,9253,10153,8764,8516,9253,10153,23698,24897,19690,21466,72,-245,-4,0.282353,-0.960784,-0.015686,0,75,a3960
2026-05-19T04:45:40.669+00:00,1779165940669801000,250,R,8760,8517,9249,10153,8760,8517,9249,10153,23695,24900,19689,21462,72,-244,-4,0.282353,-0.956863,-0.015686,0,75,b3960
2026-05-19T04:45:40.819+00:00,1779165940819377000,251,R,8762,8519,9252,10154,8762,8519,9252,10154,23693,24901,19694,21465,71,-244,-4,0.278431,-0.956863,-0.015686,0,75,c3960
2026-05-19T04:45:40.819+00:00,1779165940819514000,252,R,8763,8518,9252,10157,8763,8518,9252,10157,23699,24903,19690,21458,73,-244,-4,0.286275,-0.956863,-0.015686,0,75,d3960
2026-05-19T04:45:40.819+00:00,1779165940819589000,253,R,8761,8517,9255,10157,8761,8517,9255,10157,23694,24893,19694,21464,73,-245,-3,0.286275,-0.960784,-0.011765,0,75,54030
2026-05-19T04:45:40.819+00:00,1779165940819656000,254,R,8762,8518,9250,10155,8762,8518,9250,10155,23698,24898,19694,21470,72,-244,-2,0.282353,-0.956863,-0.007843,0,75,64030
2026-05-19T04:45:40.819+00:00,1779165940819724000,255,R,8760,8519,9250,10154,8760,8519,9250,10154,23695,24892,19691,21464,73,-244,-3,0.286275,-0.956863,-0.011765,0,75,74030
2026-05-19T04:45:40.969+00:00,1779165940969243000,256,R,8761,8518,9254,10158,8761,8518,9254,10158,23696,24898,19692,21464,73,-245,-3,0.286275,-0.960784,-0.011765,0,75,84030
2026-05-19T04:45:40.969+00:00,1779165940969376000,257,R,8763,8520,9251,10159,8763,8520,9251,10159,23698,24898,19691,21459,72,-244,-4,0.282353,-0.956863,-0.015686,0,75,94030
2026-05-19T04:45:40.969+00:00,1779165940969452000,258,R,8762,8521,9255,10156,8762,8521,9255,10156,23698,24896,19694,21462,73,-245,-4,0.286275,-0.960784,-0.015686,0,75,a4030
2026-05-19T04:45:40.969+00:00,1779165940969523000,259,R,8765,8522,9258,10161,8765,8522,9258,10161,23699,24898,19695,21468,72,-245,-4,0.282353,-0.960784,-0.015686,0,75,14090
2026-05-19T04:45:40.969+00:00,1779165940969590000,260,R,8767,8523,9257,10164,8767,8523,9257,10164,23703,24897,19697,21466,72,-244,-3,0.282353,-0.956863,-0.011765,0,75,24090
2026-05-19T04:45:41.269+00:00,1779165941269717000,261,R,8765,8521,9260,10166,8765,8521,9260,10166,23700,24894,19696,21468,74,-245,-4,0.290196,-0.960784,-0.015686,0,75,34090
2026-05-19T04:45:41.269+00:00,1779165941269779000,262,R,8769,8523,9259,10164,8769,8523,9259,10164,23702,24897,19694,21469,74,-245,-3,0.290196,-0.960784,-0.011765,0,75,44090
2026-05-19T04:45:41.269+00:00,1779165941269813000,263,R,8763,8518,9248,10154,8763,8518,9248,10154,23704,24900,19700,21472,72,-246,-3,0.282353,-0.964706,-0.011765,0,75,54090
2026-05-19T04:45:41.269+00:00,1779165941269843000,264,R,8775,8530,9266,10176,8775,8530,9266,10176,23711,24910,19704,21472,72,-244,-3,0.282353,-0.956863,-0.011765,0,75,f4180
2026-05-19T04:45:41.269+00:00,1779165941269869000,265,R,8774,8531,9266,10175,8774,8531,9266,10175,23713,24903,19701,21474,73,-244,-3,0.286275,-0.956863,-0.011765,0,75,04180
2026-05-19T04:45:41.269+00:00,1779165941269895000,266,R,8774,8531,9264,10175,8774,8531,9264,10175,23713,24905,19703,21477,72,-244,-3,0.282353,-0.956863,-0.011765,0,75,14180
2026-05-19T04:45:41.420+00:00,1779165941420548000,267,R,8777,8534,9267,10175,8777,8534,9267,10175,23717,24910,19709,21478,72,-243,-2,0.282353,-0.952941,-0.007843,0,75,24180
2026-05-19T04:45:41.420+00:00,1779165941420691000,268,R,8777,8533,9270,10175,8777,8533,9270,10175,23715,24910,19704,21476,72,-243,-3,0.282353,-0.952941,-0.011765,0,75,34180
2026-05-19T04:45:41.420+00:00,1779165941420767000,269,R,8776,8528,9262,10171,8776,8528,9262,10171,23721,24906,19701,21476,72,-246,-3,0.282353,-0.964706,-0.011765,0,75,94230
2026-05-19T04:45:41.420+00:00,1779165941420833000,270,R,8774,8528,9263,10168,8774,8528,9263,10168,23719,24908,19698,21480,71,-245,-3,0.278431,-0.960784,-0.011765,0,75,a4230
2026-05-19T04:45:41.420+00:00,1779165941420899000,271,R,8773,8525,9264,10167,8773,8525,9264,10167,23714,24902,19695,21468,71,-243,-3,0.278431,-0.952941,-0.011765,0,75,b4230
2026-05-19T04:45:41.569+00:00,1779165941569412000,272,R,8771,8524,9259,10166,8771,8524,9259,10166,23715,24902,19697,21470,71,-244,-3,0.278431,-0.956863,-0.011765,0,75,c4230
2026-05-19T04:45:41.569+00:00,1779165941569549000,273,R,8773,8521,9259,10161,8773,8521,9259,10161,23712,24904,19696,21474,73,-244,-3,0.286275,-0.956863,-0.011765,0,75,d4230
2026-05-19T04:45:41.570+00:00,1779165941570493000,274,R,8761,8514,9253,10145,8761,8514,9253,10145,23703,24900,19689,21460,73,-244,-4,0.286275,-0.956863,-0.015686,0,75,54300
2026-05-19T04:45:41.570+00:00,1779165941570595000,275,R,8764,8517,9252,10154,8764,8517,9252,10154,23700,24886,19689,21458,72,-246,-3,0.282353,-0.964706,-0.011765,0,75,64300
2026-05-19T04:45:41.570+00:00,1779165941570669000,276,R,8762,8517,9254,10157,8762,8517,9254,10157,23702,24890,19689,21459,72,-246,-4,0.282353,-0.964706,-0.015686,0,75,74300
2026-05-19T04:45:41.719+00:00,1779165941719198000,277,R,8766,8517,9263,10153,8766,8517,9263,10153,23699,24891,19687,21454,73,-245,-3,0.286275,-0.960784,-0.011765,0,75,84300
2026-05-19T04:45:41.719+00:00,1779165941719314000,278,R,8762,8516,9255,10156,8762,8516,9255,10156,23696,24887,19690,21459,70,-245,-3,0.27451,-0.960784,-0.011765,0,75,94300
2026-05-19T04:45:41.719+00:00,1779165941719402000,279,R,8760,8516,9252,10152,8760,8516,9252,10152,23697,24887,19690,21457,71,-244,-3,0.278431,-0.956863,-0.011765,0,75,a4300
2026-05-19T04:45:41.719+00:00,1779165941719471000,280,R,8763,8518,9254,10156,8763,8518,9254,10156,23700,24887,19685,21451,71,-244,-3,0.278431,-0.956863,-0.011765,0,75,04350
2026-05-19T04:45:41.719+00:00,1779165941719538000,281,R,8762,8517,9253,10153,8762,8517,9253,10153,23702,24893,19689,21455,72,-245,-3,0.282353,-0.960784,-0.011765,0,75,14350
2026-05-19T04:45:41.869+00:00,1779165941869970000,282,R,8762,8518,9250,10156,8762,8518,9250,10156,23699,24891,19687,21461,72,-244,-3,0.282353,-0.956863,-0.011765,0,75,24350
2026-05-19T04:45:41.870+00:00,1779165941870108000,283,R,8763,8519,9252,10153,8763,8519,9252,10153,23696,24888,19688,21455,72,-244,-3,0.282353,-0.956863,-0.011765,0,75,34350
2026-05-19T04:45:41.870+00:00,1779165941870185000,284,R,8763,8518,9258,10157,8763,8518,9258,10157,23697,24885,19690,21460,72,-245,-3,0.282353,-0.960784,-0.011765,0,75,44350
2026-05-19T04:45:41.870+00:00,1779165941870254000,285,R,8765,8521,9252,10156,8765,8521,9252,10156,23700,24895,19688,21454,71,-245,-4,0.278431,-0.960784,-0.015686,0,75,b4410
2026-05-19T04:45:41.870+00:00,1779165941870319000,286,R,8766,8520,9256,10158,8766,8520,9256,10158,23696,24894,19689,21462,71,-245,-3,0.278431,-0.960784,-0.011765,0,75,c4410
2026-05-19T04:45:41.870+00:00,1779165941870383000,287,R,8765,8520,9255,10157,8765,8520,9255,10157,23697,24891,19688,21458,71,-245,-4,0.278431,-0.960784,-0.015686,0,75,d4410
2026-05-19T04:45:42.165+00:00,1779165942165174000,288,R,8766,8523,9255,10161,8766,8523,9255,10161,23699,24885,19690,21453,71,-244,-4,0.278431,-0.956863,-0.015686,0,75,e4410
2026-05-19T04:45:42.165+00:00,1779165942165330000,289,R,8768,8525,9259,10162,8768,8525,9259,10162,23699,24889,19692,21459,71,-245,-3,0.278431,-0.960784,-0.011765,0,75,f4410
2026-05-19T04:45:42.165+00:00,1779165942165405000,290,R,8769,8525,9259,10167,8769,8525,9259,10167,23709,24898,19697,21466,72,-244,-2,0.282353,-0.956863,-0.007843,0,75,64470
2026-05-19T04:45:42.165+00:00,1779165942165471000,291,R,8769,8526,9259,10164,8769,8526,9259,10164,23709,24899,19697,21466,72,-245,-2,0.282353,-0.960784,-0.007843,0,75,74470
2026-05-19T04:45:42.165+00:00,1779165942165544000,292,R,8772,8527,9261,10167,8772,8527,9261,10167,23707,24893,19698,21467,72,-244,-3,0.282353,-0.956863,-0.011765,0,75,84470
2026-05-19T04:45:42.171+00:00,1779165942171987000,293,R,8773,8528,9261,10168,8773,8528,9261,10168,23705,24894,19697,21471,72,-245,-2,0.282353,-0.960784,-0.007843,0,75,94470
2026-05-19T04:45:42.172+00:00,1779165942172121000,294,R,8773,8527,9253,10164,8773,8527,9253,10164,23708,24897,19696,21464,72,-244,-3,0.282353,-0.956863,-0.011765,0,75,a4470
2026-05-19T04:45:42.172+00:00,1779165942172199000,295,R,8776,8534,9261,10177,8776,8534,9261,10177,23717,24909,19702,21477,70,-244,-3,0.27451,-0.956863,-0.011765,0,75,24540
2026-05-19T04:45:42.172+00:00,1779165942172271000,296,R,8778,8531,9267,10177,8778,8531,9267,10177,23718,24903,19703,21474,71,-244,-4,0.278431,-0.956863,-0.015686,0,75,34540
2026-05-19T04:45:42.172+00:00,1779165942172336000,297,R,8775,8529,9262,10172,8775,8529,9262,10172,23717,24901,19700,21470,70,-247,-4,0.27451,-0.968627,-0.015686,0,75,44540
2026-05-19T04:45:42.319+00:00,1779165942319777000,298,R,8778,8530,9266,10171,8778,8530,9266,10171,23722,24902,19698,21474,70,-246,-4,0.27451,-0.964706,-0.015686,0,75,54540
2026-05-19T04:45:42.319+00:00,1779165942319896000,299,R,8778,8525,9262,10170,8778,8525,9262,10170,23715,24905,19701,21476,72,-245,-3,0.282353,-0.960784,-0.011765,0,75,64540
2026-05-19T04:45:42.319+00:00,1779165942319975000,300,R,8776,8525,9262,10166,8776,8525,9262,10166,23715,24900,19695,21469,71,-243,-3,0.278431,-0.952941,-0.011765,0,75,74540
2026-05-19T04:45:42.320+00:00,1779165942320315000,301,R,8765,8522,9252,10158,8765,8522,9252,10158,23702,24891,19690,21459,72,-245,-3,0.282353,-0.960784,-0.011765,0,75,d4590
2026-05-19T04:45:42.320+00:00,1779165942320456000,302,R,8766,8519,9253,10156,8766,8519,9253,10156,23699,24888,19687,21455,71,-245,-3,0.278431,-0.960784,-0.011765,0,75,e4590
2026-05-19T04:45:42.469+00:00,1779165942469592000,303,R,8766,8517,9258,10155,8766,8517,9258,10155,23699,24890,19689,21452,72,-244,-3,0.282353,-0.956863,-0.011765,0,75,f4590
2026-05-19T04:45:42.469+00:00,1779165942469630000,304,R,8767,8521,9252,10158,8767,8521,9252,10158,23698,24886,19690,21461,72,-245,-3,0.282353,-0.960784,-0.011765,0,75,04590
2026-05-19T04:45:42.469+00:00,1779165942469646000,305,R,8765,8516,9255,10155,8765,8516,9255,10155,23699,24887,19687,21458,72,-245,-3,0.282353,-0.960784,-0.011765,0,75,14590
2026-05-19T04:45:42.469+00:00,1779165942469661000,306,R,8765,8522,9258,10165,8765,8522,9258,10165,23692,24887,19689,21456,72,-244,-3,0.282353,-0.956863,-0.011765,0,75,84650
2026-05-19T04:45:42.469+00:00,1779165942469674000,307,R,8763,8520,9254,10157,8763,8520,9254,10157,23697,24890,19687,21460,72,-245,-4,0.282353,-0.960784,-0.015686,0,75,94650
2026-05-19T04:45:42.469+00:00,1779165942469688000,308,R,8762,8517,9254,10153,8762,8517,9254,10153,23694,24880,19689,21456,71,-245,-2,0.278431,-0.960784,-0.007843,0,75,a4650
2026-05-19T04:45:42.766+00:00,1779165942766889000,309,R,8764,8520,9254,10164,8764,8520,9254,10164,23696,24890,19688,21457,71,-245,-2,0.278431,-0.960784,-0.007843,0,75,b4650
2026-05-19T04:45:42.767+00:00,1779165942767041000,310,R,8762,8524,9251,10164,8762,8524,9251,10164,23694,24886,19687,21453,70,-245,-3,0.27451,-0.960784,-0.011765,0,75,c4650
2026-05-19T04:45:42.767+00:00,1779165942767118000,311,R,8761,8519,9253,10158,8761,8519,9253,10158,23694,24891,19688,21459,72,-245,-3,0.282353,-0.960784,-0.011765,0,75,34710
2026-05-19T04:45:42.767+00:00,1779165942767187000,312,R,8764,8521,9254,10162,8764,8521,9254,10162,23696,24897,19688,21457,71,-245,-3,0.278431,-0.960784,-0.011765,0,75,44710
2026-05-19T04:45:42.767+00:00,1779165942767250000,313,R,8761,8520,9254,10157,8761,8520,9254,10157,23691,24887,19691,21457,71,-245,-3,0.278431,-0.960784,-0.011765,0,75,54710
2026-05-19T04:45:42.919+00:00,1779165942919544000,314,R,8762,8520,9257,10159,8762,8520,9257,10159,23693,24894,19691,21458,71,-245,-3,0.278431,-0.960784,-0.011765,0,75,64710
2026-05-19T04:45:42.919+00:00,1779165942919712000,315,R,8762,8520,9256,10160,8762,8520,9256,10160,23695,24892,19690,21455,70,-245,-2,0.27451,-0.960784,-0.007843,0,75,74710
2026-05-19T04:45:42.919+00:00,1779165942919791000,316,R,8767,8526,9258,10166,8767,8526,9258,10166,23703,24896,19698,21465,72,-244,-2,0.282353,-0.956863,-0.007843,0,75,f4780
2026-05-19T04:45:42.919+00:00,1779165942919859000,317,R,8766,8527,9259,10164,8766,8527,9259,10164,23701,24896,19699,21467,72,-244,-3,0.282353,-0.956863,-0.011765,0,75,04780
2026-05-19T04:45:42.919+00:00,1779165942919925000,318,R,8769,8528,9261,10167,8769,8528,9261,10167,23700,24897,19695,21469,73,-244,-3,0.286275,-0.956863,-0.011765,0,75,14780
2026-05-19T04:45:43.070+00:00,1779165943070348000,319,R,8769,8529,9264,10167,8769,8529,9264,10167,23699,24890,19698,21468,72,-243,-2,0.282353,-0.952941,-0.007843,0,75,24780
2026-05-19T04:45:43.070+00:00,1779165943070507000,320,R,8771,8528,9261,10170,8771,8528,9261,10170,23706,24901,19697,21471,72,-244,-3,0.282353,-0.956863,-0.011765,0,75,34780
2026-05-19T04:45:43.070+00:00,1779165943070597000,321,R,8769,8526,9259,10164,8769,8526,9259,10164,23705,24902,19695,21458,71,-245,-3,0.278431,-0.960784,-0.011765,0,75,44780
2026-05-19T04:45:43.070+00:00,1779165943070664000,322,R,8774,8533,9265,10173,8774,8533,9265,10173,23707,24902,19704,21475,72,-244,-2,0.282353,-0.956863,-0.007843,0,75,a4830
2026-05-19T04:45:43.070+00:00,1779165943070728000,323,R,8774,8532,9266,10176,8774,8532,9266,10176,23711,24910,19702,21479,71,-245,-3,0.278431,-0.960784,-0.011765,0,75,b4830
2026-05-19T04:45:43.219+00:00,1779165943219220000,324,R,8773,8532,9263,10175,8773,8532,9263,10175,23713,24903,19705,21475,71,-245,-2,0.278431,-0.960784,-0.007843,0,75,c4830
2026-05-19T04:45:43.219+00:00,1779165943219285000,325,R,8778,8530,9276,10170,8778,8530,9276,10170,23713,24906,19701,21478,72,-245,-4,0.282353,-0.960784,-0.015686,0,75,d4830
2026-05-19T04:45:43.219+00:00,1779165943219314000,326,R,8776,8532,9265,10176,8776,8532,9265,10176,23714,24910,19706,21479,71,-245,-4,0.278431,-0.960784,-0.015686,0,75,e4830
2026-05-19T04:45:43.219+00:00,1779165943219339000,327,R,8766,8522,9251,10159,8766,8522,9251,10159,23696,24889,19689,21456,71,-244,-4,0.278431,-0.956863,-0.015686,0,75,54890
2026-05-19T04:45:43.219+00:00,1779165943219362000,328,R,8766,8520,9257,10159,8766,8520,9257,10159,23697,24888,19691,21457,70,-243,-3,0.27451,-0.952941,-0.011765,0,75,64890
2026-05-19T04:45:43.219+00:00,1779165943219384000,329,R,8765,8521,9255,10161,8765,8521,9255,10161,23697,24896,19691,21463,70,-244,-2,0.27451,-0.956863,-0.007843,0,75,74890
2026-05-19T04:45:43.369+00:00,1779165943369524000,330,R,8763,8515,9254,10151,8763,8515,9254,10151,23698,24887,19691,21456,71,-244,-2,0.278431,-0.956863,-0.007843,0,75,84890
2026-05-19T04:45:43.369+00:00,1779165943369666000,331,R,8761,8518,9251,10154,8761,8518,9251,10154,23696,24888,19693,21460,71,-244,-4,0.278431,-0.956863,-0.015686,0,75,94890
2026-05-19T04:45:43.369+00:00,1779165943369745000,332,R,8758,8520,9244,10154,8758,8520,9244,10154,23691,24887,19688,21456,69,-245,-2,0.270588,-0.960784,-0.007843,0,75,14960
2026-05-19T04:45:43.369+00:00,1779165943369814000,333,R,8759,8518,9250,10154,8759,8518,9250,10154,23686,24887,19686,21452,71,-244,-3,0.278431,-0.956863,-0.011765,0,75,24960
2026-05-19T04:45:43.369+00:00,1779165943369879000,334,R,8760,8518,9248,10151,8760,8518,9248,10151,23688,24883,19684,21449,71,-244,-3,0.278431,-0.956863,-0.011765,0,75,34960
2026-05-19T04:45:43.519+00:00,1779165943519444000,335,R,8756,8518,9248,10149,8756,8518,9248,10149,23690,24886,19687,21459,71,-245,-3,0.278431,-0.960784,-0.011765,0,75,44960
2026-05-19T04:45:43.519+00:00,1779165943519587000,336,R,8758,8517,9249,10150,8758,8517,9249,10150,23690,24885,19687,21450,72,-245,-3,0.282353,-0.960784,-0.011765,0,75,54960
2026-05-19T04:45:43.519+00:00,1779165943519664000,337,R,8759,8519,9248,10153,8759,8519,9248,10153,23688,24884,19691,21454,71,-245,-2,0.278431,-0.960784,-0.007843,0,75,d5030
2026-05-19T04:45:43.519+00:00,1779165943519730000,338,R,8759,8516,9250,10153,8759,8516,9250,10153,23693,24887,19689,21452,71,-245,-2,0.278431,-0.960784,-0.007843,0,75,e5030
2026-05-19T04:45:43.519+00:00,1779165943519796000,339,R,8758,8518,9253,10152,8758,8518,9253,10152,23691,24889,19691,21457,70,-245,-3,0.27451,-0.960784,-0.011765,0,75,f5030
2026-05-19T04:45:43.669+00:00,1779165943669587000,340,R,8759,8518,9252,10150,8759,8518,9252,10150,23691,24889,19689,21452,71,-244,-3,0.278431,-0.956863,-0.011765,0,75,05030
2026-05-19T04:45:43.669+00:00,1779165943669742000,341,R,8763,8513,9263,10152,8763,8513,9263,10152,23689,24882,19691,21453,70,-244,-3,0.27451,-0.956863,-0.011765,0,75,15030
2026-05-19T04:45:43.669+00:00,1779165943669821000,342,R,8758,8520,9251,10158,8758,8520,9251,10158,23686,24888,19689,21450,71,-245,-2,0.278431,-0.960784,-0.007843,0,75,25030
2026-05-19T04:45:43.669+00:00,1779165943669889000,343,R,8761,8523,9252,10157,8761,8523,9252,10157,23689,24891,19694,21458,72,-245,-1,0.282353,-0.960784,-0.003922,0,75,95090
2026-05-19T04:45:43.669+00:00,1779165943669956000,344,R,8766,8523,9254,10162,8766,8523,9254,10162,23696,24885,19698,21465,73,-244,-2,0.286275,-0.956863,-0.007843,0,75,a5090
2026-05-19T04:45:43.820+00:00,1779165943820816000,345,R,8763,8524,9255,10161,8763,8524,9255,10161,23697,24895,19698,21463,72,-244,-2,0.282353,-0.956863,-0.007843,0,75,b5090
2026-05-19T04:45:43.820+00:00,1779165943820955000,346,R,8766,8524,9254,10161,8766,8524,9254,10161,23699,24897,19693,21463,73,-244,-2,0.286275,-0.956863,-0.007843,0,75,c5090
2026-05-19T04:45:43.821+00:00,1779165943821033000,347,R,8766,8527,9259,10163,8766,8527,9259,10163,23698,24890,19697,21456,72,-244,-2,0.282353,-0.956863,-0.007843,0,75,d5090
2026-05-19T04:45:43.821+00:00,1779165943821103000,348,R,8770,8532,9261,10169,8770,8532,9261,10169,23708,24897,19701,21467,72,-244,-2,0.282353,-0.956863,-0.007843,0,75,55160
2026-05-19T04:45:43.821+00:00,1779165943821397000,349,R,8772,8532,9266,10171,8772,8532,9266,10171,23706,24902,19702,21470,72,-245,-3,0.282353,-0.960784,-0.011765,0,75,65160
2026-05-19T04:45:43.821+00:00,1779165943821480000,350,R,8772,8533,9263,10173,8772,8533,9263,10173,23710,24905,19705,21475,72,-244,-2,0.282353,-0.956863,-0.007843,0,75,75160
2026-05-19T04:45:44.118+00:00,1779165944118777000,351,R,8773,8533,9262,10172,8773,8533,9262,10172,23708,24902,19705,21471,72,-244,-2,0.282353,-0.956863,-0.007843,0,75,85160
2026-05-19T04:45:44.118+00:00,1779165944118926000,352,R,8771,8532,9262,10173,8771,8532,9262,10173,23713,24909,19706,21471,72,-244,-3,0.282353,-0.956863,-0.011765,0,75,95160
2026-05-19T04:45:44.119+00:00,1779165944119013000,353,R,8768,8523,9259,10159,8768,8523,9259,10159,23707,24895,19695,21469,73,-244,-3,0.286275,-0.956863,-0.011765,0,75,15230
2026-05-19T04:45:44.119+00:00,1779165944119082000,354,R,8768,8523,9257,10160,8768,8523,9257,10160,23704,24897,19693,21464,72,-243,-2,0.282353,-0.952941,-0.007843,0,75,25230
2026-05-19T04:45:44.119+00:00,1779165944119148000,355,R,8767,8521,9255,10156,8767,8521,9255,10156,23700,24896,19693,21461,72,-243,-2,0.282353,-0.952941,-0.007843,0,75,35230
2026-05-19T04:45:44.268+00:00,1779165944268804000,356,R,8764,8521,9255,10155,8764,8521,9255,10155,23701,24896,19693,21464,72,-243,-2,0.282353,-0.952941,-0.007843,0,75,45230
2026-05-19T04:45:44.268+00:00,1779165944268973000,357,R,8766,8522,9253,10158,8766,8522,9253,10158,23697,24890,19691,21459,71,-243,-2,0.278431,-0.952941,-0.007843,0,75,55230
2026-05-19T04:45:44.269+00:00,1779165944269048000,358,R,8763,8519,9253,10154,8763,8519,9253,10154,23696,24889,19691,21458,73,-244,-2,0.286275,-0.956863,-0.007843,0,75,65230
2026-05-19T04:45:44.269+00:00,1779165944269117000,359,R,8756,8518,9248,10153,8756,8518,9248,10153,23693,24884,19686,21452,72,-245,-3,0.282353,-0.960784,-0.011765,0,75,d5290
2026-05-19T04:45:44.269+00:00,1779165944269190000,360,R,8754,8516,9237,10140,8754,8516,9237,10140,23693,24877,19688,21450,71,-244,-2,0.278431,-0.956863,-0.007843,0,75,e5290
2026-05-19T04:45:44.566+00:00,1779165944566825000,361,R,8759,8517,9249,10146,8759,8517,9249,10146,23690,24882,19684,21444,71,-244,-2,0.278431,-0.956863,-0.007843,0,75,f5290
2026-05-19T04:45:44.566+00:00,1779165944566860000,362,R,8758,8520,9247,10149,8758,8520,9247,10149,23689,24876,19687,21453,71,-244,-1,0.278431,-0.956863,-0.003922,0,75,05290
2026-05-19T04:45:44.566+00:00,1779165944566878000,363,R,8757,8517,9246,10146,8757,8517,9246,10146,23690,24887,19691,21452,72,-244,-3,0.282353,-0.956863,-0.011765,0,75,15290
2026-05-19T04:45:44.566+00:00,1779165944566895000,364,R,8757,8518,9248,10150,8757,8518,9248,10150,23692,24883,19689,21453,72,-244,-2,0.282353,-0.956863,-0.007843,0,75,95360
2026-05-19T04:45:44.566+00:00,1779165944566910000,365,R,8760,8518,9251,10152,8760,8518,9251,10152,23686,24876,19687,21449,72,-245,-2,0.282353,-0.960784,-0.007843,0,75,a5360
2026-05-19T04:45:44.566+00:00,1779165944566924000,366,R,8758,8518,9251,10152,8758,8518,9251,10152,23693,24886,19690,21454,72,-244,-3,0.282353,-0.956863,-0.011765,0,75,b5360
2026-05-19T04:45:44.716+00:00,1779165944716481000,367,R,8759,8517,9250,10152,8759,8517,9250,10152,23692,24885,19688,21455,71,-245,-2,0.278431,-0.960784,-0.007843,0,75,c5360
2026-05-19T04:45:44.716+00:00,1779165944716588000,368,R,8758,8520,9250,10152,8758,8520,9250,10152,23692,24884,19689,21445,72,-245,-2,0.282353,-0.960784,-0.007843,0,75,d5360
2026-05-19T04:45:44.716+00:00,1779165944716633000,369,R,8763,8522,9256,10162,8763,8522,9256,10162,23694,24885,19696,21458,73,-244,-2,0.286275,-0.956863,-0.007843,0,75,55430
2026-05-19T04:45:44.716+00:00,1779165944716672000,370,R,8764,8521,9252,10153,8764,8521,9252,10153,23696,24890,19691,21453,72,-244,-1,0.282353,-0.956863,-0.003922,0,75,65430
2026-05-19T04:45:44.716+00:00,1779165944716709000,371,R,8765,8524,9254,10158,8765,8524,9254,10158,23695,24887,19694,21455,73,-244,-3,0.286275,-0.956863,-0.011765,0,75,75430
2026-05-19T04:45:44.867+00:00,1779165944867393000,372,R,8766,8524,9255,10158,8766,8524,9255,10158,23699,24891,19698,21462,73,-243,-3,0.286275,-0.952941,-0.011765,0,75,85430
2026-05-19T04:45:44.867+00:00,1779165944867539000,373,R,8767,8524,9256,10161,8767,8524,9256,10161,23693,24884,19696,21461,72,-244,-2,0.282353,-0.956863,-0.007843,0,75,95430
2026-05-19T04:45:44.867+00:00,1779165944867614000,374,R,8771,8529,9261,10165,8771,8529,9261,10165,23704,24893,19702,21464,73,-245,-3,0.286275,-0.960784,-0.011765,0,75,15500
2026-05-19T04:45:44.867+00:00,1779165944867682000,375,R,8768,8531,9261,10167,8768,8531,9261,10167,23710,24895,19701,21463,73,-245,-2,0.286275,-0.960784,-0.007843,0,75,25500
2026-05-19T04:45:44.867+00:00,1779165944867999000,376,R,8773,8532,9260,10169,8773,8532,9260,10169,23706,24897,19701,21476,72,-245,-3,0.282353,-0.960784,-0.011765,0,75,35500
2026-05-19T04:45:45.164+00:00,1779165945164956000,377,R,8773,8530,9260,10164,8773,8530,9260,10164,23709,24893,19702,21465,72,-245,-3,0.282353,-0.960784,-0.011765,0,75,45500
2026-05-19T04:45:45.165+00:00,1779165945165064000,378,R,8772,8527,9260,10166,8772,8527,9260,10166,23712,24903,19707,21469,72,-245,-2,0.282353,-0.960784,-0.007843,0,75,55500
2026-05-19T04:45:45.165+00:00,1779165945165103000,379,R,8773,8535,9258,10175,8773,8535,9258,10175,23714,24903,19705,21475,73,-244,-2,0.286275,-0.956863,-0.007843,0,75,65500
2026-05-19T04:45:45.165+00:00,1779165945165131000,380,R,8780,8534,9263,10171,8780,8534,9263,10171,23721,24899,19705,21472,73,-245,-2,0.286275,-0.960784,-0.007843,0,75,d5560
2026-05-19T04:45:45.165+00:00,1779165945165156000,381,R,8778,8533,9263,10171,8778,8533,9263,10171,23719,24899,19704,21475,72,-247,-3,0.282353,-0.968627,-0.011765,0,75,e5560
2026-05-19T04:45:45.172+00:00,1779165945172058000,382,R,8775,8528,9262,10165,8775,8528,9262,10165,23714,24895,19703,21475,73,-246,-3,0.286275,-0.964706,-0.011765,0,75,f5560
2026-05-19T04:45:45.172+00:00,1779165945172160000,383,R,8774,8527,9259,10161,8774,8527,9259,10161,23714,24900,19699,21466,73,-245,-3,0.286275,-0.960784,-0.011765,0,75,05560
2026-05-19T04:45:45.172+00:00,1779165945172228000,384,R,8772,8528,9253,10163,8772,8528,9253,10163,23709,24892,19697,21462,72,-245,-2,0.282353,-0.960784,-0.007843,0,75,15560
2026-05-19T04:45:45.172+00:00,1779165945172293000,385,R,8765,8521,9251,10151,8765,8521,9251,10151,23702,24886,19694,21461,73,-244,-3,0.286275,-0.956863,-0.011765,0,75,95630
2026-05-19T04:45:45.172+00:00,1779165945172359000,386,R,8767,8516,9252,10142,8767,8516,9252,10142,23705,24885,19693,21451,72,-244,-2,0.282353,-0.956863,-0.007843,0,75,a5630
2026-05-19T04:45:45.172+00:00,1779165945172424000,387,R,8764,8517,9250,10148,8764,8517,9250,10148,23703,24892,19691,21451,72,-244,-2,0.282353,-0.956863,-0.007843,0,75,b5630
2026-05-19T04:45:45.320+00:00,1779165945320238000,388,R,8764,8519,9251,10150,8764,8519,9251,10150,23700,24891,19692,21453,71,-245,-2,0.278431,-0.960784,-0.007843,0,75,c5630
2026-05-19T04:45:45.320+00:00,1779165945320281000,389,R,8764,8520,9252,10149,8764,8520,9252,10149,23699,24888,19692,21450,72,-244,-3,0.282353,-0.956863,-0.011765,0,75,d5630
2026-05-19T04:45:45.320+00:00,1779165945320305000,390,R,8764,8520,9252,10147,8764,8520,9252,10147,23694,24874,19691,21456,72,-244,-2,0.282353,-0.956863,-0.007843,0,75,55700
2026-05-19T04:45:45.320+00:00,1779165945320325000,391,R,8765,8521,9251,10152,8765,8521,9251,10152,23698,24885,19690,21453,72,-245,-2,0.282353,-0.960784,-0.007843,0,75,65700
2026-05-19T04:45:45.320+00:00,1779165945320344000,392,R,8762,8519,9251,10151,8762,8519,9251,10151,23698,24887,19692,21450,72,-244,-2,0.282353,-0.956863,-0.007843,0,75,75700
2026-05-19T04:45:45.469+00:00,1779165945469520000,393,R,8762,8519,9250,10152,8762,8519,9250,10152,23696,24889,19689,21453,72,-244,-2,0.282353,-0.956863,-0.007843,0,75,85700
2026-05-19T04:45:45.469+00:00,1779165945469655000,394,R,8764,8519,9252,10151,8764,8519,9252,10151,23698,24885,19693,21452,71,-245,-3,0.278431,-0.960784,-0.011765,0,75,95700
2026-05-19T04:45:45.469+00:00,1779165945469742000,395,R,8766,8524,9255,10152,8766,8524,9255,10152,23700,24885,19693,21459,69,-244,-3,0.270588,-0.956863,-0.011765,0,74,15770
2026-05-19T04:45:45.469+00:00,1779165945469811000,396,R,8768,8523,9255,10153,8768,8523,9255,10153,23700,24879,19695,21451,69,-244,-2,0.270588,-0.956863,-0.007843,0,74,25770
2026-05-19T04:45:45.469+00:00,1779165945469878000,397,R,8768,8526,9256,10157,8768,8526,9256,10157,23699,24887,19697,21457,69,-243,-3,0.270588,-0.952941,-0.011765,0,74,35770
2026-05-19T04:45:45.619+00:00,1779165945619327000,398,R,8769,8524,9254,10155,8769,8524,9254,10155,23703,24890,19694,21460,70,-243,-3,0.27451,-0.952941,-0.011765,0,74,45770
2026-05-19T04:45:45.619+00:00,1779165945619448000,399,R,8769,8524,9259,10155,8769,8524,9259,10155,23700,24891,19696,21459,72,-244,-2,0.282353,-0.956863,-0.007843,0,74,55770
2026-05-19T04:45:45.619+00:00,1779165945619523000,400,R,8768,8522,9257,10154,8768,8522,9257,10154,23703,24885,19698,21460,71,-244,-2,0.278431,-0.956863,-0.007843,0,74,65770
2026-05-19T04:45:45.619+00:00,1779165945619589000,401,R,8775,8529,9259,10163,8775,8529,9259,10163,23715,24899,19701,21463,73,-245,-2,0.286275,-0.960784,-0.007843,0,74,d5830
2026-05-19T04:45:45.619+00:00,1779165945619653000,402,R,8770,8528,9255,10164,8770,8528,9255,10164,23710,24895,19701,21465,73,-245,-2,0.286275,-0.960784,-0.007843,0,74,e5830
2026-05-19T04:45:45.769+00:00,1779165945769717000,403,R,8775,8531,9262,10164,8775,8531,9262,10164,23712,24898,19701,21459,72,-245,-2,0.282353,-0.960784,-0.007843,0,74,f5830
2026-05-19T04:45:45.769+00:00,1779165945769864000,404,R,8773,8530,9262,10167,8773,8530,9262,10167,23713,24896,19702,21471,72,-245,-2,0.282353,-0.960784,-0.007843,0,74,05830
2026-05-19T04:45:45.769+00:00,1779165945769937000,405,R,8777,8530,9262,10166,8777,8530,9262,10166,23715,24899,19704,21464,74,-245,-3,0.290196,-0.960784,-0.011765,0,74,15830
2026-05-19T04:45:45.769+00:00,1779165945770003000,406,R,8783,8535,9264,10171,8783,8535,9264,10171,23717,24906,19709,21477,71,-244,-2,0.278431,-0.956863,-0.007843,0,74,95900
2026-05-19T04:45:45.770+00:00,1779165945770094000,407,R,8780,8537,9266,10174,8780,8537,9266,10174,23722,24906,19713,21482,72,-244,-2,0.282353,-0.956863,-0.007843,0,74,a5900
2026-05-19T04:45:45.770+00:00,1779165945770155000,408,R,8781,8533,9268,10170,8781,8533,9268,10170,23723,24898,19709,21474,72,-244,-3,0.282353,-0.956863,-0.011765,0,74,b5900
2026-05-19T04:45:45.919+00:00,1779165945919461000,409,R,8782,8532,9265,10171,8782,8532,9265,10171,23723,24905,19706,21474,72,-246,-2,0.282353,-0.964706,-0.007843,0,74,c5900
2026-05-19T04:45:45.919+00:00,1779165945919600000,410,R,8777,8530,9261,10160,8777,8530,9261,10160,23725,24902,19705,21474,73,-246,-2,0.286275,-0.964706,-0.007843,0,74,d5900
2026-05-19T04:45:45.919+00:00,1779165945919675000,411,R,8773,8525,9258,10157,8773,8525,9258,10157,23710,24893,19697,21460,72,-243,-1,0.282353,-0.952941,-0.003922,0,74,45960
2026-05-19T04:45:45.919+00:00,1779165945919758000,412,R,8769,8525,9255,10159,8769,8525,9255,10159,23708,24895,19694,21452,73,-244,-2,0.286275,-0.956863,-0.007843,0,74,55960
2026-05-19T04:45:45.919+00:00,1779165945919834000,413,R,8769,8523,9255,10156,8769,8523,9255,10156,23706,24891,19697,21458,72,-244,-2,0.282353,-0.956863,-0.007843,0,74,65960
2026-05-19T04:45:46.069+00:00,1779165946070026000,414,R,8768,8521,9255,10156,8768,8521,9255,10156,23706,24888,19695,21460,73,-244,-2,0.286275,-0.956863,-0.007843,0,74,75960
2026-05-19T04:45:46.070+00:00,1779165946070150000,415,R,8769,8522,9255,10146,8769,8522,9255,10146,23706,24891,19696,21463,73,-244,-3,0.286275,-0.956863,-0.011765,0,74,85960
2026-05-19T04:45:46.070+00:00,1779165946070241000,416,R,8766,8520,9250,10145,8766,8520,9250,10145,23703,24891,19697,21460,72,-243,-2,0.282353,-0.952941,-0.007843,0,74,f6020
2026-05-19T04:45:46.070+00:00,1779165946070311000,417,R,8767,8523,9253,10153,8767,8523,9253,10153,23701,24888,19696,21460,72,-243,-3,0.282353,-0.952941,-0.011765,0,74,06020
2026-05-19T04:45:46.070+00:00,1779165946070376000,418,R,8769,8525,9256,10154,8769,8525,9256,10154,23703,24886,19695,21457,71,-245,-2,0.278431,-0.960784,-0.007843,0,74,16020
2026-05-19T04:45:46.220+00:00,1779165946220926000,419,R,8768,8524,9252,10152,8768,8524,9252,10152,23704,24887,19695,21461,72,-246,-2,0.282353,-0.964706,-0.007843,0,74,26020
2026-05-19T04:45:46.221+00:00,1779165946221055000,420,R,8769,8524,9254,10154,8769,8524,9254,10154,23704,24890,19693,21456,71,-245,-2,0.278431,-0.960784,-0.007843,0,74,36020
2026-05-19T04:45:46.221+00:00,1779165946221130000,421,R,8767,8524,9252,10155,8767,8524,9252,10155,23705,24896,19697,21466,72,-246,-1,0.282353,-0.964706,-0.003922,0,74,46020
2026-05-19T04:45:46.221+00:00,1779165946221197000,422,R,8767,8526,9254,10158,8767,8526,9254,10158,23703,24895,19699,21464,72,-244,-2,0.282353,-0.956863,-0.007843,0,74,a6070
2026-05-19T04:45:46.221+00:00,1779165946221261000,423,R,8772,8529,9247,10158,8772,8529,9247,10158,23705,24898,19698,21469,72,-244,-2,0.282353,-0.956863,-0.007843,0,74,b6070
2026-05-19T04:45:46.370+00:00,1779165946370796000,424,R,8765,8525,9253,10155,8765,8525,9253,10155,23700,24892,19699,21464,71,-244,-3,0.278431,-0.956863,-0.011765,0,74,c6070
2026-05-19T04:45:46.370+00:00,1779165946370871000,425,R,8767,8525,9254,10158,8767,8525,9254,10158,23708,24891,19700,21465,72,-244,-2,0.282353,-0.956863,-0.007843,0,74,d6070
2026-05-19T04:45:46.370+00:00,1779165946370912000,426,R,8767,8524,9256,10156,8767,8524,9256,10156,23703,24890,19698,21463,71,-244,-2,0.278431,-0.956863,-0.007843,0,74,e6070
2026-05-19T04:45:46.370+00:00,1779165946370947000,427,R,8773,8529,9262,10164,8773,8529,9262,10164,23705,24902,19708,21475,72,-244,-2,0.282353,-0.956863,-0.007843,0,74,66140
2026-05-19T04:45:46.370+00:00,1779165946370981000,428,R,8774,8533,9260,10164,8774,8533,9260,10164,23707,24896,19704,21470,72,-244,-2,0.282353,-0.956863,-0.007843,0,74,76140
2026-05-19T04:45:46.371+00:00,1779165946371016000,429,R,8775,8532,9262,10170,8775,8532,9262,10170,23710,24897,19703,21472,73,-244,-2,0.286275,-0.956863,-0.007843,0,74,86140
2026-05-19T04:45:46.519+00:00,1779165946519499000,430,R,8775,8532,9263,10168,8775,8532,9263,10168,23709,24901,19703,21471,72,-245,-2,0.282353,-0.960784,-0.007843,0,74,96140
2026-05-19T04:45:46.519+00:00,1779165946519617000,431,R,8775,8532,9264,10168,8775,8532,9264,10168,23709,24902,19704,21472,72,-245,-2,0.282353,-0.960784,-0.007843,0,74,a6140
2026-05-19T04:45:46.519+00:00,1779165946519693000,432,R,8779,8540,9267,10173,8779,8540,9267,10173,23718,24911,19709,21478,71,-246,-2,0.278431,-0.964706,-0.007843,0,74,16200
2026-05-19T04:45:46.519+00:00,1779165946519762000,433,R,8780,8540,9266,10175,8780,8540,9266,10175,23720,24912,19716,21482,72,-245,-3,0.282353,-0.960784,-0.011765,0,74,26200
2026-05-19T04:45:46.519+00:00,1779165946519844000,434,R,8782,8539,9268,10175,8782,8539,9268,10175,23718,24902,19711,21478,72,-245,-2,0.282353,-0.960784,-0.007843,0,74,36200
2026-05-19T04:45:46.821+00:00,1779165946821146000,435,R,8781,8539,9269,10176,8781,8539,9269,10176,23716,24910,19713,21480,71,-244,-2,0.278431,-0.956863,-0.007843,0,74,46200
2026-05-19T04:45:46.821+00:00,1779165946821321000,436,R,8785,8539,9270,10177,8785,8539,9270,10177,23720,24913,19715,21484,71,-244,-3,0.278431,-0.956863,-0.011765,0,74,56200
2026-05-19T04:45:46.821+00:00,1779165946821400000,437,R,8786,8538,9270,10177,8786,8538,9270,10177,23723,24910,19709,21480,71,-246,-3,0.278431,-0.964706,-0.011765,0,74,c6260
2026-05-19T04:45:46.821+00:00,1779165946821470000,438,R,8780,8537,9267,10174,8780,8537,9267,10174,23725,24913,19712,21483,71,-246,-3,0.278431,-0.964706,-0.011765,0,74,d6260
2026-05-19T04:45:46.821+00:00,1779165946821552000,439,R,8781,8533,9266,10163,8781,8533,9266,10163,23719,24902,19708,21480,71,-245,-3,0.278431,-0.960784,-0.011765,0,74,e6260
2026-05-19T04:45:46.970+00:00,1779165946970067000,440,R,8778,8533,9263,10168,8778,8533,9263,10168,23720,24904,19711,21476,72,-245,-3,0.282353,-0.960784,-0.011765,0,74,f6260
2026-05-19T04:45:46.970+00:00,1779165946970196000,441,R,8779,8532,9261,10166,8779,8532,9261,10166,23719,24904,19708,21478,72,-244,-2,0.282353,-0.956863,-0.007843,0,74,06260
2026-05-19T04:45:46.970+00:00,1779165946970272000,442,R,8777,8529,9262,10162,8777,8529,9262,10162,23713,24899,19703,21468,71,-243,-2,0.278431,-0.952941,-0.007843,0,74,16260
2026-05-19T04:45:46.970+00:00,1779165946970339000,443,R,8771,8532,9260,10167,8771,8532,9260,10167,23705,24892,19703,21470,72,-244,-2,0.282353,-0.956863,-0.007843,0,74,76310
2026-05-19T04:45:46.970+00:00,1779165946970404000,444,R,8771,8525,9257,10158,8771,8525,9257,10158,23708,24902,19700,21466,71,-245,-2,0.278431,-0.960784,-0.007843,0,74,86310
2026-05-19T04:45:47.265+00:00,1779165947265194000,445,R,8770,8525,9259,10159,8770,8525,9259,10159,23703,24891,19697,21459,71,-245,-2,0.278431,-0.960784,-0.007843,0,74,96310
2026-05-19T04:45:47.265+00:00,1779165947265348000,446,R,8770,8525,9255,10156,8770,8525,9255,10156,23700,24895,19695,21460,71,-246,-2,0.278431,-0.964706,-0.007843,0,74,a6310
2026-05-19T04:45:47.265+00:00,1779165947265425000,447,R,8771,8526,9257,10157,8771,8526,9257,10157,23704,24896,19697,21465,71,-246,-2,0.278431,-0.964706,-0.007843,0,74,b6310
2026-05-19T04:45:47.265+00:00,1779165947265503000,448,R,8769,8525,9257,10160,8769,8525,9257,10160,23700,24900,19700,21466,72,-244,-2,0.282353,-0.956863,-0.007843,0,74,56400
2026-05-19T04:45:47.265+00:00,1779165947265571000,449,R,8768,8527,9255,10159,8768,8527,9255,10159,23699,24894,19701,21468,72,-244,-2,0.282353,-0.956863,-0.007843,0,74,66400
2026-05-19T04:45:47.265+00:00,1779165947265637000,450,R,8766,8527,9253,10159,8766,8527,9253,10159,23700,24890,19697,21460,72,-244,-1,0.282353,-0.956863,-0.003922,0,74,76400
2026-05-19T04:45:47.570+00:00,1779165947570399000,451,R,8769,8526,9256,10159,8769,8526,9256,10159,23699,24889,19700,21465,71,-245,-1,0.278431,-0.960784,-0.003922,0,74,86400
2026-05-19T04:45:47.570+00:00,1779165947570442000,452,R,8772,8525,9257,10160,8772,8525,9257,10160,23698,24890,19700,21463,72,-244,-2,0.282353,-0.956863,-0.007843,0,74,96400
2026-05-19T04:45:47.570+00:00,1779165947570462000,453,R,8768,8528,9257,10160,8768,8528,9257,10160,23698,24886,19703,21470,70,-244,-2,0.27451,-0.956863,-0.007843,0,74,f6450
2026-05-19T04:45:47.570+00:00,1779165947570481000,454,R,8771,8530,9261,10163,8771,8530,9261,10163,23700,24902,19703,21464,69,-245,-3,0.270588,-0.960784,-0.011765,0,74,06450
2026-05-19T04:45:47.570+00:00,1779165947570498000,455,R,8769,8529,9258,10164,8769,8529,9258,10164,23703,24898,19703,21466,71,-245,-2,0.278431,-0.960784,-0.007843,0,74,16450
2026-05-19T04:45:47.867+00:00,1779165947867884000,456,R,8772,8531,9261,10166,8772,8531,9261,10166,23699,24898,19704,21464,71,-244,-2,0.278431,-0.956863,-0.007843,0,74,26450
2026-05-19T04:45:47.868+00:00,1779165947868036000,457,R,8773,8532,9260,10167,8773,8532,9260,10167,23701,24895,19702,21465,72,-244,-3,0.282353,-0.956863,-0.011765,0,74,36450
2026-05-19T04:45:47.868+00:00,1779165947868113000,458,R,8773,8531,9260,10165,8773,8531,9260,10165,23705,24897,19705,21468,72,-246,-2,0.282353,-0.964706,-0.007843,0,74,46450
2026-05-19T04:45:47.868+00:00,1779165947868181000,459,R,8778,8534,9264,10172,8778,8534,9264,10172,23714,24908,19711,21480,72,-245,-2,0.282353,-0.960784,-0.007843,0,74,b6510
2026-05-19T04:45:47.868+00:00,1779165947868250000,460,R,8777,8534,9267,10171,8777,8534,9267,10171,23713,24909,19714,21477,72,-245,-2,0.282353,-0.960784,-0.007843,0,74,c6510
2026-05-19T04:45:48.170+00:00,1779165948170153000,461,R,8776,8536,9267,10172,8776,8536,9267,10172,23709,24904,19709,21474,71,-244,-2,0.278431,-0.956863,-0.007843,0,74,d6510
2026-05-19T04:45:48.170+00:00,1779165948170314000,462,R,8779,8537,9267,10171,8779,8537,9267,10171,23711,24908,19711,21480,72,-245,-2,0.282353,-0.960784,-0.007843,0,74,e6510
2026-05-19T04:45:48.170+00:00,1779165948170390000,463,R,8780,8536,9266,10170,8780,8536,9266,10170,23714,24906,19710,21481,72,-245,-3,0.282353,-0.960784,-0.011765,0,74,f6510
2026-05-19T04:45:48.170+00:00,1779165948170456000,464,R,8783,8542,9267,10177,8783,8542,9267,10177,23718,24909,19717,21488,71,-243,-1,0.278431,-0.952941,-0.003922,0,74,66570
2026-05-19T04:45:48.170+00:00,1779165948170521000,465,R,8784,8542,9273,10182,8784,8542,9273,10182,23720,24912,19719,21485,71,-245,-1,0.278431,-0.960784,-0.003922,0,74,76570
2026-05-19T04:45:48.170+00:00,1779165948170584000,466,R,8785,8542,9271,10178,8785,8542,9271,10178,23719,24908,19718,21487,70,-244,-2,0.27451,-0.956863,-0.007843,0,74,86570
2026-05-19T04:45:48.319+00:00,1779165948319507000,467,R,8787,8542,9275,10179,8787,8542,9275,10179,23725,24917,19716,21490,71,-243,-2,0.278431,-0.952941,-0.007843,0,74,96570
2026-05-19T04:45:48.319+00:00,1779165948319636000,468,R,8783,8542,9274,10178,8783,8542,9274,10178,23720,24911,19717,21490,72,-245,-2,0.282353,-0.960784,-0.007843,0,74,a6570
2026-05-19T04:45:48.319+00:00,1779165948319710000,469,R,8779,8535,9263,10176,8779,8535,9263,10176,23711,24898,19703,21466,71,-244,-2,0.278431,-0.956863,-0.007843,0,74,16630
2026-05-19T04:45:48.319+00:00,1779165948319777000,470,R,8773,8528,9258,10162,8773,8528,9258,10162,23709,24903,19704,21470,71,-245,-2,0.278431,-0.960784,-0.007843,0,74,26630
2026-05-19T04:45:48.319+00:00,1779165948319841000,471,R,8772,8529,9259,10163,8772,8529,9259,10163,23710,24900,19705,21470,71,-244,-1,0.278431,-0.956863,-0.003922,0,74,36630
2026-05-19T04:45:48.470+00:00,1779165948470267000,472,R,8775,8528,9261,10163,8775,8528,9261,10163,23709,24903,19703,21472,70,-244,-1,0.27451,-0.956863,-0.003922,0,74,46630
2026-05-19T04:45:48.470+00:00,1779165948470309000,473,R,8773,8529,9258,10162,8773,8529,9258,10162,23706,24894,19701,21469,71,-245,-2,0.278431,-0.960784,-0.007843,0,74,56630
2026-05-19T04:45:48.470+00:00,1779165948470333000,474,R,8771,8521,9259,10151,8771,8521,9259,10151,23702,24889,19698,21460,70,-244,-1,0.27451,-0.956863,-0.003922,0,74,d6700
2026-05-19T04:45:48.470+00:00,1779165948470352000,475,R,8769,8527,9260,10160,8769,8527,9260,10160,23697,24890,19697,21458,70,-243,-2,0.27451,-0.952941,-0.007843,0,74,e6700
2026-05-19T04:45:48.470+00:00,1779165948470371000,476,R,8770,8526,9257,10157,8770,8526,9257,10157,23701,24892,19698,21471,71,-244,-2,0.278431,-0.956863,-0.007843,0,74,f6700
2026-05-19T04:45:48.618+00:00,1779165948618973000,477,R,8767,8525,9258,10156,8767,8525,9258,10156,23697,24891,19698,21461,70,-246,-1,0.27451,-0.964706,-0.003922,0,74,06700
2026-05-19T04:45:48.619+00:00,1779165948619008000,478,R,8770,8522,9258,10150,8770,8522,9258,10150,23702,24892,19699,21467,71,-246,-2,0.278431,-0.964706,-0.007843,0,74,16700
2026-05-19T04:45:48.619+00:00,1779165948619024000,479,R,8771,8525,9257,10161,8771,8525,9257,10161,23696,24887,19695,21460,71,-245,-2,0.278431,-0.960784,-0.007843,0,74,26700
2026-05-19T04:45:48.619+00:00,1779165948619039000,480,R,8767,8524,9253,10156,8767,8524,9253,10156,23697,24888,19697,21463,70,-246,-2,0.27451,-0.964706,-0.007843,0,74,86750
2026-05-19T04:45:48.619+00:00,1779165948619052000,481,R,8768,8529,9250,10156,8768,8529,9250,10156,23696,24884,19695,21461,71,-244,-2,0.278431,-0.956863,-0.007843,0,74,96750
2026-05-19T04:45:48.769+00:00,1779165948769447000,482,R,8768,8527,9259,10161,8768,8527,9259,10161,23698,24892,19700,21468,70,-245,-2,0.27451,-0.960784,-0.007843,0,74,a6750
2026-05-19T04:45:48.769+00:00,1779165948769503000,483,R,8768,8528,9256,10163,8768,8528,9256,10163,23701,24901,19698,21467,70,-245,-2,0.27451,-0.960784,-0.007843,0,74,b6750
2026-05-19T04:45:48.769+00:00,1779165948769528000,484,R,8771,8529,9260,10160,8771,8529,9260,10160,23699,24893,19700,21462,70,-245,-1,0.27451,-0.960784,-0.003922,0,74,c6750
2026-05-19T04:45:48.769+00:00,1779165948769548000,485,R,8773,8531,9264,10166,8773,8531,9264,10166,23704,24895,19698,21461,70,-245,-2,0.27451,-0.960784,-0.007843,0,74,36810
2026-05-19T04:45:48.769+00:00,1779165948769567000,486,R,8772,8531,9260,10163,8772,8531,9260,10163,23704,24894,19702,21464,72,-244,-2,0.282353,-0.956863,-0.007843,0,74,46810
2026-05-19T04:45:48.769+00:00,1779165948769585000,487,R,8771,8533,9261,10165,8771,8533,9261,10165,23704,24901,19705,21475,71,-245,-2,0.278431,-0.960784,-0.007843,0,74,56810
2026-05-19T04:45:48.920+00:00,1779165948920894000,488,R,8772,8532,9258,10166,8772,8532,9258,10166,23705,24895,19701,21466,72,-244,-2,0.282353,-0.956863,-0.007843,0,74,66810
2026-05-19T04:45:48.921+00:00,1779165948921038000,489,R,8775,8533,9262,10168,8775,8533,9262,10168,23701,24896,19706,21471,72,-244,-2,0.282353,-0.956863,-0.007843,0,74,76810
2026-05-19T04:45:48.921+00:00,1779165948921115000,490,R,8778,8537,9265,10172,8778,8537,9265,10172,23712,24901,19706,21478,72,-245,-2,0.282353,-0.960784,-0.007843,0,74,e6870
2026-05-19T04:45:48.921+00:00,1779165948921182000,491,R,8779,8537,9267,10173,8779,8537,9267,10173,23713,24900,19706,21470,71,-246,-1,0.278431,-0.964706,-0.003922,0,74,f6870
2026-05-19T04:45:48.921+00:00,1779165948921249000,492,R,8781,8536,9267,10174,8781,8536,9267,10174,23710,24895,19710,21473,71,-245,-1,0.278431,-0.960784,-0.003922,0,74,06870
2026-05-19T04:45:49.070+00:00,1779165949070908000,493,R,8779,8536,9269,10174,8779,8536,9269,10174,23714,24897,19711,21480,71,-245,-1,0.278431,-0.960784,-0.003922,0,74,16870
2026-05-19T04:45:49.071+00:00,1779165949071042000,494,R,8777,8534,9259,10161,8777,8534,9259,10161,23715,24906,19709,21474,71,-245,-1,0.278431,-0.960784,-0.003922,0,74,26870
2026-05-19T04:45:49.071+00:00,1779165949071118000,495,R,8784,8543,9264,10180,8784,8543,9264,10180,23717,24903,19710,21484,69,-246,-2,0.270588,-0.964706,-0.007843,0,74,a6940
2026-05-19T04:45:49.071+00:00,1779165949071184000,496,R,8780,8535,9267,10175,8780,8535,9267,10175,23718,24909,19709,21485,71,-246,-3,0.278431,-0.964706,-0.011765,0,74,b6940
2026-05-19T04:45:49.071+00:00,1779165949071249000,497,R,8779,8535,9265,10167,8779,8535,9265,10167,23718,24907,19707,21476,70,-245,-2,0.27451,-0.960784,-0.007843,0,74,c6940
2026-05-19T04:45:49.219+00:00,1779165949219795000,498,R,8779,8532,9267,10169,8779,8532,9267,10169,23714,24906,19704,21473,70,-245,-2,0.27451,-0.960784,-0.007843,0,74,d6940
2026-05-19T04:45:49.220+00:00,1779165949220151000,499,R,8777,8532,9257,10166,8777,8532,9257,10166,23713,24905,19704,21478,70,-244,-2,0.27451,-0.956863,-0.007843,0,74,e6940
2026-05-19T04:45:49.220+00:00,1779165949220233000,500,R,8774,8532,9261,10165,8774,8532,9261,10165,23708,24902,19701,21470,70,-244,-2,0.27451,-0.956863,-0.007843,0,74,f6940
2026-05-19T04:45:49.220+00:00,1779165949220302000,501,R,8771,8526,9261,10165,8771,8526,9261,10165,23702,24896,19694,21460,71,-245,-2,0.278431,-0.960784,-0.007843,0,74,67000
2026-05-19T04:45:49.220+00:00,1779165949220369000,502,R,8771,8526,9258,10163,8771,8526,9258,10163,23704,24897,19699,21467,70,-245,-2,0.27451,-0.960784,-0.007843,0,74,77000
2026-05-19T04:45:49.369+00:00,1779165949369440000,503,R,8768,8528,9259,10162,8768,8528,9259,10162,23699,24887,19695,21460,70,-245,-3,0.27451,-0.960784,-0.011765,0,74,87000
2026-05-19T04:45:49.369+00:00,1779165949369548000,504,R,8765,8528,9255,10161,8765,8528,9255,10161,23696,24892,19699,21463,70,-246,-2,0.27451,-0.964706,-0.007843,0,74,97000
2026-05-19T04:45:49.369+00:00,1779165949369611000,505,R,8767,8524,9256,10163,8767,8524,9256,10163,23696,24893,19700,21467,70,-245,-2,0.27451,-0.960784,-0.007843,0,74,a7000
2026-05-19T04:45:49.369+00:00,1779165949369660000,506,R,8768,8530,9261,10161,8768,8530,9261,10161,23696,24893,19700,21468,69,-245,-1,0.270588,-0.960784,-0.003922,0,74,27070
2026-05-19T04:45:49.369+00:00,1779165949369714000,507,R,8770,8529,9261,10165,8770,8529,9261,10165,23695,24891,19698,21470,70,-244,-1,0.27451,-0.956863,-0.003922,0,74,37070
2026-05-19T04:45:49.369+00:00,1779165949369764000,508,R,8775,8531,9264,10170,8775,8531,9264,10170,23694,24892,19697,21468,71,-244,-1,0.278431,-0.956863,-0.003922,0,74,47070
2026-05-19T04:45:49.519+00:00,1779165949519360000,509,R,8769,8529,9261,10161,8769,8529,9261,10161,23699,24896,19699,21463,69,-244,-2,0.270588,-0.956863,-0.007843,0,74,57070
2026-05-19T04:45:49.519+00:00,1779165949519477000,510,R,8771,8529,9263,10164,8771,8529,9263,10164,23696,24893,19701,21472,71,-245,-1,0.278431,-0.960784,-0.003922,0,74,67070
2026-05-19T04:45:49.519+00:00,1779165949519563000,511,R,8772,8532,9266,10169,8772,8532,9266,10169,23697,24894,19701,21465,69,-245,-1,0.270588,-0.960784,-0.003922,0,73,e7140
2026-05-19T04:45:49.519+00:00,1779165949519710000,512,R,8771,8532,9262,10173,8771,8532,9262,10173,23697,24899,19700,21469,69,-246,-1,0.270588,-0.964706,-0.003922,0,73,f7140
2026-05-19T04:45:49.519+00:00,1779165949519799000,513,R,8772,8534,9265,10168,8772,8534,9265,10168,23699,24895,19705,21474,70,-245,-1,0.27451,-0.960784,-0.003922,0,73,07140
2026-05-19T04:45:49.814+00:00,1779165949814628000,514,R,8771,8535,9260,10169,8771,8535,9260,10169,23696,24893,19709,21476,69,-244,-1,0.270588,-0.956863,-0.003922,0,73,17140
2026-05-19T04:45:49.814+00:00,1779165949814785000,515,R,8769,8533,9260,10170,8769,8533,9260,10170,23701,24903,19705,21478,69,-245,-1,0.270588,-0.960784,-0.003922,0,73,27140
2026-05-19T04:45:49.814+00:00,1779165949814873000,516,R,8776,8539,9267,10178,8776,8539,9267,10178,23704,24903,19712,21484,70,-244,-1,0.27451,-0.956863,-0.003922,0,73,a7210
2026-05-19T04:45:49.814+00:00,1779165949814941000,517,R,8778,8542,9272,10179,8778,8542,9272,10179,23705,24902,19710,21479,69,-245,-1,0.270588,-0.960784,-0.003922,0,73,b7210
2026-05-19T04:45:49.814+00:00,1779165949815013000,518,R,8780,8541,9271,10178,8780,8541,9271,10178,23707,24904,19710,21479,70,-246,-2,0.27451,-0.964706,-0.007843,0,73,c7210
2026-05-19T04:45:49.820+00:00,1779165949821008000,519,R,8778,8539,9271,10179,8778,8539,9271,10179,23711,24914,19710,21480,69,-245,-2,0.270588,-0.960784,-0.007843,0,73,d7210
2026-05-19T04:45:49.821+00:00,1779165949821120000,520,R,8778,8543,9272,10181,8778,8543,9272,10181,23708,24906,19714,21485,69,-246,-2,0.270588,-0.964706,-0.007843,0,73,e7210
2026-05-19T04:45:49.821+00:00,1779165949821198000,521,R,8780,8543,9273,10182,8780,8543,9273,10182,23711,24913,19716,21488,69,-245,-2,0.270588,-0.960784,-0.007843,0,73,f7210
2026-05-19T04:45:49.821+00:00,1779165949821266000,522,R,8783,8542,9274,10184,8783,8542,9274,10184,23717,24910,19715,21485,68,-247,-2,0.266667,-0.968627,-0.007843,0,73,67270
2026-05-19T04:45:49.821+00:00,1779165949821335000,523,R,8784,8542,9273,10181,8784,8542,9273,10181,23717,24908,19714,21491,69,-249,-4,0.270588,-0.976471,-0.015686,0,73,77270
2026-05-19T04:45:49.970+00:00,1779165949970797000,524,R,8780,8540,9272,10179,8780,8540,9272,10179,23714,24911,19711,21487,69,-247,-3,0.270588,-0.968627,-0.011765,0,73,87270
2026-05-19T04:45:49.970+00:00,1779165949970879000,525,R,8781,8540,9271,10178,8781,8540,9271,10178,23713,24905,19711,21486,68,-246,-3,0.266667,-0.964706,-0.011765,0,73,97270
2026-05-19T04:45:49.971+00:00,1779165949971154000,526,R,8775,8535,9266,10174,8775,8535,9266,10174,23708,24907,19708,21474,68,-245,-3,0.266667,-0.960784,-0.011765,0,73,a7270
2026-05-19T04:45:49.971+00:00,1779165949971211000,527,R,8768,8530,9261,10171,8768,8530,9261,10171,23699,24903,19704,21471,68,-245,-3,0.266667,-0.960784,-0.011765,0,73,27340
2026-05-19T04:45:49.971+00:00,1779165949971300000,528,R,8771,8532,9260,10164,8771,8532,9260,10164,23696,24898,19706,21470,69,-246,-2,0.270588,-0.964706,-0.007843,0,73,37340
2026-05-19T04:45:49.971+00:00,1779165949971364000,529,R,8768,8528,9269,10165,8768,8528,9269,10165,23697,24893,19700,21470,67,-246,-2,0.262745,-0.964706,-0.007843,0,73,47340
2026-05-19T04:45:50.268+00:00,1779165950268885000,530,R,8768,8532,9258,10166,8768,8532,9258,10166,23693,24894,19701,21472,69,-246,-3,0.270588,-0.964706,-0.011765,0,73,57340
2026-05-19T04:45:50.269+00:00,1779165950269044000,531,R,8768,8528,9260,10162,8768,8528,9260,10162,23697,24898,19701,21468,67,-246,-2,0.262745,-0.964706,-0.007843,0,73,67340
2026-05-19T04:45:50.269+00:00,1779165950269123000,532,R,8765,8531,9260,10165,8765,8531,9260,10165,23692,24895,19702,21475,67,-246,-1,0.262745,-0.964706,-0.003922,0,73,e7410
2026-05-19T04:45:50.269+00:00,1779165950269189000,533,R,8766,8530,9259,10167,8766,8530,9259,10167,23691,24896,19702,21472,67,-246,-1,0.262745,-0.964706,-0.003922,0,73,f7410
2026-05-19T04:45:50.269+00:00,1779165950269254000,534,R,8768,8531,9260,10168,8768,8531,9260,10168,23690,24895,19701,21468,69,-245,-1,0.270588,-0.960784,-0.003922,0,73,07410
2026-05-19T04:45:50.418+00:00,1779165950418551000,535,R,8768,8533,9261,10170,8768,8533,9261,10170,23690,24893,19700,21469,69,-246,-1,0.270588,-0.964706,-0.003922,0,73,17410
2026-05-19T04:45:50.418+00:00,1779165950418678000,536,R,8766,8532,9259,10167,8766,8532,9259,10167,23690,24891,19702,21469,68,-246,-2,0.266667,-0.964706,-0.007843,0,73,27410
2026-05-19T04:45:50.418+00:00,1779165950418753000,537,R,8768,8535,9260,10170,8768,8535,9260,10170,23692,24895,19705,21471,64,-245,-1,0.25098,-0.960784,-0.003922,0,73,a7480
2026-05-19T04:45:50.418+00:00,1779165950418820000,538,R,8767,8535,9259,10171,8767,8535,9259,10171,23691,24894,19709,21476,65,-246,-1,0.254902,-0.964706,-0.003922,0,73,b7480
2026-05-19T04:45:50.418+00:00,1779165950418885000,539,R,8768,8533,9262,10170,8768,8533,9262,10170,23694,24895,19709,21479,65,-247,-1,0.254902,-0.968627,-0.003922,0,73,c7480
2026-05-19T04:45:50.567+00:00,1779165950567552000,540,R,8771,8536,9261,10172,8771,8536,9261,10172,23694,24895,19708,21473,66,-248,0,0.258824,-0.972549,0.0,0,73,d7480
2026-05-19T04:45:50.567+00:00,1779165950567697000,541,R,8766,8536,9257,10163,8766,8536,9257,10163,23699,24899,19709,21475,68,-246,-2,0.266667,-0.964706,-0.007843,0,73,e7480
2026-05-19T04:45:50.567+00:00,1779165950567775000,542,R,8770,8536,9264,10173,8770,8536,9264,10173,23694,24899,19705,21472,67,-245,-2,0.262745,-0.960784,-0.007843,0,73,f7480
2026-05-19T04:45:50.567+00:00,1779165950567844000,543,R,8775,8543,9268,10177,8775,8543,9268,10177,23696,24902,19716,21487,65,-247,-2,0.254902,-0.968627,-0.007843,0,73,57530
2026-05-19T04:45:50.567+00:00,1779165950567908000,544,R,8770,8541,9268,10182,8770,8541,9268,10182,23704,24910,19718,21485,65,-248,-2,0.254902,-0.972549,-0.007843,0,73,67530
2026-05-19T04:45:50.866+00:00,1779165950866727000,545,R,8772,8542,9266,10183,8772,8542,9266,10183,23704,24909,19717,21482,64,-246,-2,0.25098,-0.964706,-0.007843,0,73,77530
2026-05-19T04:45:50.866+00:00,1779165950866870000,546,R,8774,8543,9271,10182,8774,8543,9271,10182,23696,24900,19720,21484,63,-247,-2,0.247059,-0.968627,-0.007843,0,73,87530
2026-05-19T04:45:50.866+00:00,1779165950866947000,547,R,8778,8543,9271,10184,8778,8543,9271,10184,23700,24907,19723,21487,62,-246,-3,0.243137,-0.964706,-0.011765,0,73,97530
2026-05-19T04:45:50.867+00:00,1779165950867015000,548,R,8779,8550,9277,10189,8779,8550,9277,10189,23712,24912,19726,21493,59,-246,-3,0.231373,-0.964706,-0.011765,0,73,07590
2026-05-19T04:45:50.867+00:00,1779165950867099000,549,R,8779,8549,9276,10189,8779,8549,9276,10189,23708,24919,19725,21497,57,-246,-2,0.223529,-0.964706,-0.007843,0,73,17590
2026-05-19T04:45:50.867+00:00,1779165950867163000,550,R,8780,8553,9275,10192,8780,8553,9275,10192,23712,24917,19728,21493,58,-247,-1,0.227451,-0.968627,-0.003922,0,73,27590
2026-05-19T04:49:14.235+00:00,1779166154236851000,1,R,9252,8287,9249,10390,9252,8287,9249,10390,24669,24565,19450,22067,105,-225,-34,0.411765,-0.882353,-0.133333,0,73,e00
2026-05-19T04:49:14.237+00:00,1779166154237131000,2,R,9251,8290,9250,10392,9251,8290,9250,10392,24662,24565,19456,22066,103,-224,-33,0.403922,-0.878431,-0.129412,0,73,f00
2026-05-19T04:49:14.237+00:00,1779166154237222000,3,R,9248,8292,9250,10394,9248,8292,9250,10394,24657,24566,19457,22065,99,-227,-30,0.388235,-0.890196,-0.117647,0,73,000
2026-05-19T04:49:14.237+00:00,1779166154237298000,4,R,9249,8297,9249,10395,9249,8297,9249,10395,24656,24567,19463,22068,98,-228,-29,0.384314,-0.894118,-0.113725,0,73,100
2026-05-19T04:49:14.237+00:00,1779166154237371000,5,R,9246,8296,9248,10400,9246,8296,9248,10400,24652,24570,19466,22071,97,-230,-29,0.380392,-0.901961,-0.113725,0,73,200
2026-05-19T04:49:14.237+00:00,1779166154237447000,6,R,9243,8296,9247,10397,9243,8296,9247,10397,24651,24567,19468,22067,93,-229,-28,0.364706,-0.898039,-0.109804,0,73,300
2026-05-19T04:49:14.385+00:00,1779166154385799000,7,R,9243,8297,9248,10400,9243,8297,9248,10400,24647,24570,19472,22073,91,-232,-27,0.356863,-0.909804,-0.105882,0,73,400
2026-05-19T04:49:14.385+00:00,1779166154385961000,8,R,9243,8302,9249,10399,9243,8302,9249,10399,24644,24568,19477,22077,90,-233,-26,0.352941,-0.913725,-0.101961,0,73,500
2026-05-19T04:49:14.386+00:00,1779166154386053000,9,R,9243,8299,9247,10402,9243,8299,9247,10402,24641,24571,19478,22079,90,-232,-27,0.352941,-0.909804,-0.105882,0,73,600
2026-05-19T04:49:14.386+00:00,1779166154386124000,10,R,9239,8302,9249,10405,9239,8302,9249,10405,24640,24572,19481,22083,90,-232,-27,0.352941,-0.909804,-0.105882,0,73,700
2026-05-19T04:49:14.386+00:00,1779166154386205000,11,R,9240,8303,9251,10407,9240,8303,9251,10407,24635,24569,19479,22084,89,-234,-27,0.34902,-0.917647,-0.105882,0,73,800
2026-05-19T04:49:14.535+00:00,1779166154535837000,12,R,9239,8304,9249,10408,9239,8304,9249,10408,24638,24575,19485,22089,89,-234,-26,0.34902,-0.917647,-0.101961,0,73,900
2026-05-19T04:49:14.535+00:00,1779166154535973000,13,R,9241,8307,9250,10408,9241,8307,9250,10408,24634,24576,19484,22089,88,-235,-26,0.345098,-0.921569,-0.101961,0,73,a00
2026-05-19T04:49:14.536+00:00,1779166154536048000,14,R,9239,8307,9250,10410,9239,8307,9250,10410,24635,24574,19485,22092,88,-236,-26,0.345098,-0.92549,-0.101961,0,73,b00
2026-05-19T04:49:14.536+00:00,1779166154536114000,15,R,9241,8309,9251,10414,9241,8309,9251,10414,24637,24575,19482,22091,87,-237,-26,0.341176,-0.929412,-0.101961,0,73,c00
2026-05-19T04:49:14.536+00:00,1779166154536189000,16,R,9242,8309,9248,10414,9242,8309,9248,10414,24637,24574,19488,22091,87,-237,-27,0.341176,-0.929412,-0.105882,0,73,d00
2026-05-19T04:49:14.685+00:00,1779166154685780000,17,R,9244,8311,9252,10418,9244,8311,9252,10418,24638,24575,19490,22096,87,-237,-26,0.341176,-0.929412,-0.101961,0,73,e00
2026-05-19T04:49:14.685+00:00,1779166154685915000,18,R,9241,8310,9253,10416,9241,8310,9253,10416,24635,24573,19491,22101,87,-238,-27,0.341176,-0.933333,-0.105882,0,73,f00
2026-05-19T04:49:14.685+00:00,1779166154685993000,19,R,9242,8311,9255,10418,9242,8311,9255,10418,24638,24574,19491,22105,86,-237,-27,0.337255,-0.929412,-0.105882,0,73,000
2026-05-19T04:49:14.686+00:00,1779166154686062000,20,R,9244,8313,9253,10419,9244,8313,9253,10419,24640,24575,19491,22105,84,-238,-25,0.329412,-0.933333,-0.098039,0,73,100
2026-05-19T04:49:14.686+00:00,1779166154686130000,21,R,9244,8314,9252,10424,9244,8314,9252,10424,24641,24580,19494,22111,83,-239,-24,0.32549,-0.937255,-0.094118,0,73,200
2026-05-19T04:49:14.686+00:00,1779166154686194000,22,R,9248,8315,9256,10426,9248,8315,9256,10426,24642,24584,19493,22114,85,-239,-24,0.333333,-0.937255,-0.094118,0,73,300
2026-05-19T04:49:14.836+00:00,1779166154837005000,23,R,9248,8313,9256,10425,9248,8313,9256,10425,24645,24580,19493,22116,85,-240,-25,0.333333,-0.941176,-0.098039,0,73,400
2026-05-19T04:49:14.837+00:00,1779166154837138000,24,R,9248,8314,9257,10429,9248,8314,9257,10429,24649,24582,19494,22117,84,-239,-24,0.329412,-0.937255,-0.094118,0,73,500
2026-05-19T04:49:14.837+00:00,1779166154837214000,25,R,9247,8311,9255,10430,9247,8311,9255,10430,24652,24589,19491,22115,83,-239,-26,0.32549,-0.937255,-0.101961,0,73,600
2026-05-19T04:49:14.837+00:00,1779166154837283000,26,R,9248,8314,9255,10427,9248,8314,9255,10427,24653,24582,19489,22115,83,-242,-25,0.32549,-0.94902,-0.098039,0,73,700
2026-05-19T04:49:14.837+00:00,1779166154837352000,27,R,9247,8309,9251,10424,9247,8309,9251,10424,24648,24583,19488,22113,81,-242,-26,0.317647,-0.94902,-0.101961,0,73,800
2026-05-19T04:49:14.986+00:00,1779166154986035000,28,R,9252,8310,9258,10420,9252,8310,9258,10420,24644,24579,19486,22113,82,-240,-26,0.321569,-0.941176,-0.101961,0,73,900
2026-05-19T04:49:14.986+00:00,1779166154986097000,29,R,9245,8304,9248,10416,9245,8304,9248,10416,24644,24576,19486,22109,81,-239,-26,0.317647,-0.937255,-0.101961,0,73,a00
2026-05-19T04:49:14.986+00:00,1779166154986130000,30,R,9244,8305,9248,10417,9244,8305,9248,10417,24642,24569,19483,22108,82,-239,-26,0.321569,-0.937255,-0.101961,0,73,b00
2026-05-19T04:49:14.986+00:00,1779166154986158000,31,R,9242,8304,9247,10412,9242,8304,9247,10412,24641,24569,19482,22103,79,-238,-26,0.309804,-0.933333,-0.101961,0,73,c00
2026-05-19T04:49:14.986+00:00,1779166154986185000,32,R,9240,8303,9246,10410,9240,8303,9246,10410,24636,24567,19479,22104,81,-237,-27,0.317647,-0.929412,-0.105882,0,73,d00
2026-05-19T04:49:14.986+00:00,1779166154986211000,33,R,9240,8304,9243,10410,9240,8304,9243,10410,24639,24572,19480,22097,81,-239,-28,0.317647,-0.937255,-0.109804,0,73,e00
2026-05-19T04:49:15.137+00:00,1779166155137219000,34,R,9237,8302,9242,10410,9237,8302,9242,10410,24635,24566,19480,22100,80,-240,-27,0.313725,-0.941176,-0.105882,0,73,f00
2026-05-19T04:49:15.137+00:00,1779166155137372000,35,R,9234,8302,9243,10409,9234,8302,9243,10409,24630,24570,19481,22100,82,-241,-25,0.321569,-0.945098,-0.098039,0,73,000
2026-05-19T04:49:15.137+00:00,1779166155137447000,36,R,9231,8302,9244,10408,9231,8302,9244,10408,24622,24572,19482,22104,78,-243,-27,0.305882,-0.952941,-0.105882,0,73,100
2026-05-19T04:49:15.137+00:00,1779166155137515000,37,R,9230,8303,9243,10410,9230,8303,9243,10410,24623,24570,19483,22104,75,-242,-28,0.294118,-0.94902,-0.109804,0,73,200
2026-05-19T04:49:15.137+00:00,1779166155137582000,38,R,9229,8302,9243,10410,9229,8302,9243,10410,24615,24571,19483,22106,79,-241,-29,0.309804,-0.945098,-0.113725,0,73,300
2026-05-19T04:49:15.286+00:00,1779166155286970000,39,R,9226,8303,9238,10411,9226,8303,9238,10411,24606,24560,19484,22103,76,-240,-23,0.298039,-0.941176,-0.090196,0,73,400
2026-05-19T04:49:15.287+00:00,1779166155287056000,40,R,9223,8303,9234,10412,9223,8303,9234,10412,24605,24568,19487,22110,79,-239,-26,0.309804,-0.937255,-0.101961,0,73,500
2026-05-19T04:49:15.287+00:00,1779166155287096000,41,R,9221,8303,9234,10410,9221,8303,9234,10410,24603,24561,19482,22104,78,-241,-26,0.305882,-0.945098,-0.101961,0,73,600
2026-05-19T04:49:15.287+00:00,1779166155287140000,42,R,9220,8302,9233,10410,9220,8302,9233,10410,24599,24554,19484,22105,75,-242,-26,0.294118,-0.94902,-0.101961,0,73,700
2026-05-19T04:49:15.287+00:00,1779166155287175000,43,R,9220,8304,9230,10412,9220,8304,9230,10412,24598,24552,19482,22108,75,-244,-25,0.294118,-0.956863,-0.098039,0,73,800
2026-05-19T04:49:15.436+00:00,1779166155436797000,44,R,9219,8305,9227,10412,9219,8305,9227,10412,24597,24546,19487,22108,75,-244,-24,0.294118,-0.956863,-0.094118,0,73,900
2026-05-19T04:49:15.436+00:00,1779166155436919000,45,R,9222,8307,9227,10415,9222,8307,9227,10415,24599,24546,19488,22113,77,-243,-23,0.301961,-0.952941,-0.090196,0,73,a00
2026-05-19T04:49:15.436+00:00,1779166155436994000,46,R,9216,8307,9225,10413,9216,8307,9225,10413,24598,24538,19489,22114,76,-244,-23,0.298039,-0.956863,-0.090196,0,73,b00
2026-05-19T04:49:15.437+00:00,1779166155437063000,47,R,9219,8305,9220,10416,9219,8305,9220,10416,24592,24527,19493,22115,75,-244,-22,0.294118,-0.956863,-0.086275,0,73,c00
2026-05-19T04:49:15.437+00:00,1779166155437126000,48,R,9214,8306,9215,10416,9214,8306,9215,10416,24590,24515,19496,22113,76,-245,-22,0.298039,-0.960784,-0.086275,0,73,d00
2026-05-19T04:49:15.437+00:00,1779166155437628000,49,R,9206,8309,9210,10418,9206,8309,9210,10418,24580,24505,19494,22116,76,-247,-22,0.298039,-0.968627,-0.086275,0,73,e00
2026-05-19T04:49:15.884+00:00,1779166155884436000,50,R,9204,8308,9203,10416,9204,8308,9203,10416,24565,24492,19498,22114,75,-244,-22,0.294118,-0.956863,-0.086275,0,73,f00
2026-05-19T04:49:15.884+00:00,1779166155884478000,51,R,9200,8307,9202,10415,9200,8307,9202,10415,24552,24481,19494,22104,76,-241,-23,0.298039,-0.945098,-0.090196,0,73,000
2026-05-19T04:49:15.884+00:00,1779166155884495000,52,R,9200,8305,9199,10417,9200,8305,9199,10417,24542,24464,19489,22100,74,-240,-21,0.290196,-0.941176,-0.082353,0,73,100
2026-05-19T04:49:15.884+00:00,1779166155884509000,53,R,9198,8304,9189,10411,9198,8304,9189,10411,24543,24458,19493,22102,72,-241,-20,0.282353,-0.945098,-0.078431,0,73,200
2026-05-19T04:49:15.884+00:00,1779166155884523000,54,R,9198,8306,9187,10415,9198,8306,9187,10415,24540,24447,19487,22099,74,-241,-21,0.290196,-0.945098,-0.082353,0,73,300
2026-05-19T04:49:16.035+00:00,1779166156036069000,55,R,9198,8304,9186,10417,9198,8304,9186,10417,24541,24440,19488,22108,73,-241,-19,0.286275,-0.945098,-0.07451,0,73,400
2026-05-19T04:49:16.036+00:00,1779166156036246000,56,R,9202,8303,9184,10417,9202,8303,9184,10417,24547,24440,19487,22114,72,-242,-20,0.282353,-0.94902,-0.078431,0,73,500
2026-05-19T04:49:16.036+00:00,1779166156036323000,57,R,9205,8304,9187,10424,9205,8304,9187,10424,24555,24441,19488,22123,73,-244,-21,0.286275,-0.956863,-0.082353,0,73,600
2026-05-19T04:49:16.036+00:00,1779166156036392000,58,R,9209,8307,9189,10426,9209,8307,9189,10426,24565,24446,19491,22129,73,-245,-20,0.286275,-0.960784,-0.078431,0,73,700
2026-05-19T04:49:16.036+00:00,1779166156036461000,59,R,9211,8309,9191,10428,9211,8309,9191,10428,24571,24448,19492,22129,69,-246,-21,0.270588,-0.964706,-0.082353,0,73,800
2026-05-19T04:49:16.186+00:00,1779166156186064000,60,R,9214,8309,9192,10429,9214,8309,9192,10429,24577,24460,19498,22139,69,-245,-20,0.270588,-0.960784,-0.078431,0,73,900
2026-05-19T04:49:16.186+00:00,1779166156186222000,61,R,9215,8313,9196,10432,9215,8313,9196,10432,24581,24463,19499,22139,66,-245,-21,0.258824,-0.960784,-0.082353,0,73,a00
2026-05-19T04:49:16.186+00:00,1779166156186298000,62,R,9217,8313,9198,10431,9217,8313,9198,10431,24578,24467,19497,22140,63,-246,-19,0.247059,-0.964706,-0.07451,0,73,b00
2026-05-19T04:49:16.186+00:00,1779166156186365000,63,R,9216,8311,9201,10435,9216,8311,9201,10435,24585,24473,19500,22145,65,-245,-20,0.254902,-0.960784,-0.078431,0,73,c00
2026-05-19T04:49:16.186+00:00,1779166156186447000,64,R,9216,8312,9199,10434,9216,8312,9199,10434,24586,24475,19502,22143,61,-246,-21,0.239216,-0.964706,-0.082353,0,73,d00
2026-05-19T04:49:16.186+00:00,1779166156186516000,65,R,9219,8312,9203,10434,9219,8312,9203,10434,24588,24480,19505,22149,65,-245,-17,0.254902,-0.960784,-0.066667,0,73,e00
2026-05-19T04:49:16.335+00:00,1779166156335693000,66,R,9221,8313,9206,10436,9221,8313,9206,10436,24589,24478,19504,22150,65,-244,-17,0.254902,-0.956863,-0.066667,0,73,f00
2026-05-19T04:49:16.335+00:00,1779166156335812000,67,R,9220,8314,9209,10437,9220,8314,9209,10437,24592,24486,19504,22151,63,-245,-19,0.247059,-0.960784,-0.07451,0,73,000
2026-05-19T04:49:16.335+00:00,1779166156335846000,68,R,9219,8316,9208,10439,9219,8316,9208,10439,24595,24489,19507,22155,62,-245,-19,0.243137,-0.960784,-0.07451,0,73,100
2026-05-19T04:49:16.335+00:00,1779166156335875000,69,R,9224,8314,9211,10441,9224,8314,9211,10441,24594,24493,19503,22149,62,-247,-20,0.243137,-0.968627,-0.078431,0,73,200
2026-05-19T04:49:16.335+00:00,1779166156335900000,70,R,9223,8316,9211,10440,9223,8316,9211,10440,24596,24497,19506,22159,61,-248,-19,0.239216,-0.972549,-0.07451,0,73,300
2026-05-19T04:49:16.486+00:00,1779166156486834000,71,R,9223,8318,9216,10445,9223,8318,9216,10445,24590,24500,19510,22159,61,-246,-21,0.239216,-0.964706,-0.082353,0,73,400
2026-05-19T04:49:16.486+00:00,1779166156486927000,72,R,9220,8317,9220,10441,9220,8317,9220,10441,24585,24508,19514,22158,57,-244,-23,0.223529,-0.956863,-0.090196,0,73,500
2026-05-19T04:49:16.486+00:00,1779166156486969000,73,R,9212,8327,9217,10441,9212,8327,9217,10441,24570,24505,19522,22153,54,-248,-19,0.211765,-0.972549,-0.07451,0,73,600
2026-05-19T04:49:16.487+00:00,1779166156487005000,74,R,9209,8330,9217,10446,9209,8330,9217,10446,24559,24506,19531,22155,59,-249,-23,0.231373,-0.976471,-0.090196,0,73,700
2026-05-19T04:49:16.487+00:00,1779166156487040000,75,R,9206,8333,9218,10449,9206,8333,9218,10449,24550,24512,19535,22158,63,-248,-27,0.247059,-0.972549,-0.105882,0,73,800
2026-05-19T04:49:16.487+00:00,1779166156487281000,76,R,9205,8338,9220,10449,9205,8338,9220,10449,24549,24516,19536,22157,65,-248,-26,0.254902,-0.972549,-0.101961,0,73,900
2026-05-19T04:49:16.787+00:00,1779166156787588000,77,R,9203,8339,9221,10451,9203,8339,9221,10451,24541,24516,19540,22159,62,-245,-24,0.243137,-0.960784,-0.094118,0,73,a00
2026-05-19T04:49:16.787+00:00,1779166156787745000,78,R,9196,8340,9223,10451,9196,8340,9223,10451,24539,24520,19538,22158,59,-246,-21,0.231373,-0.964706,-0.082353,0,73,b00
2026-05-19T04:49:16.787+00:00,1779166156787823000,79,R,9201,8343,9224,10454,9201,8343,9224,10454,24531,24530,19547,22162,54,-246,-20,0.211765,-0.964706,-0.078431,0,73,c00
2026-05-19T04:49:16.787+00:00,1779166156787892000,80,R,9198,8346,9227,10455,9198,8346,9227,10455,24532,24534,19551,22163,50,-247,-19,0.196078,-0.968627,-0.07451,0,73,d00
2026-05-19T04:49:16.787+00:00,1779166156787957000,81,R,9198,8349,9228,10458,9198,8349,9228,10458,24532,24536,19557,22168,48,-248,-16,0.188235,-0.972549,-0.062745,0,73,e00
2026-05-19T04:49:17.084+00:00,1779166157084732000,82,R,9197,8346,9229,10456,9197,8346,9229,10456,24532,24538,19559,22168,48,-247,-16,0.188235,-0.968627,-0.062745,0,73,f00
2026-05-19T04:49:17.084+00:00,1779166157084860000,83,R,9197,8348,9227,10456,9197,8348,9227,10456,24529,24539,19558,22167,47,-250,-16,0.184314,-0.980392,-0.062745,0,73,000
2026-05-19T04:49:17.084+00:00,1779166157084923000,84,R,9196,8346,9226,10454,9196,8346,9226,10454,24527,24540,19557,22169,45,-250,-16,0.176471,-0.980392,-0.062745,0,73,100
2026-05-19T04:49:17.084+00:00,1779166157084983000,85,R,9193,8344,9222,10453,9193,8344,9222,10453,24527,24540,19554,22164,45,-251,-16,0.176471,-0.984314,-0.062745,0,73,200
2026-05-19T04:49:17.085+00:00,1779166157085030000,86,R,9191,8340,9226,10451,9191,8340,9226,10451,24518,24536,19555,22171,46,-250,-16,0.180392,-0.980392,-0.062745,0,73,300
2026-05-19T04:49:17.235+00:00,1779166157235369000,87,R,9188,8340,9222,10446,9188,8340,9222,10446,24521,24535,19555,22164,47,-248,-16,0.184314,-0.972549,-0.062745,0,73,400
2026-05-19T04:49:17.235+00:00,1779166157235652000,88,R,9185,8339,9221,10446,9185,8339,9221,10446,24518,24530,19555,22161,47,-247,-15,0.184314,-0.968627,-0.058824,0,73,500
2026-05-19T04:49:17.235+00:00,1779166157235706000,89,R,9186,8340,9219,10443,9186,8340,9219,10443,24521,24534,19554,22160,49,-248,-16,0.192157,-0.972549,-0.062745,0,73,600
2026-05-19T04:49:17.235+00:00,1779166157235735000,90,R,9185,8340,9217,10442,9185,8340,9217,10442,24518,24534,19549,22156,47,-247,-15,0.184314,-0.968627,-0.058824,0,73,700
2026-05-19T04:49:17.235+00:00,1779166157235762000,91,R,9183,8337,9216,10441,9183,8337,9216,10441,24519,24528,19551,22154,47,-247,-15,0.184314,-0.968627,-0.058824,0,73,800
2026-05-19T04:49:17.235+00:00,1779166157235974000,92,R,9183,8340,9217,10442,9183,8340,9217,10442,24512,24530,19546,22153,47,-248,-15,0.184314,-0.972549,-0.058824,0,73,900
2026-05-19T04:49:17.384+00:00,1779166157384027000,93,R,9184,8335,9214,10438,9184,8335,9214,10438,24514,24527,19548,22150,45,-248,-15,0.176471,-0.972549,-0.058824,0,73,a00
2026-05-19T04:49:17.384+00:00,1779166157384060000,94,R,9181,8335,9215,10436,9181,8335,9215,10436,24517,24526,19550,22151,47,-247,-15,0.184314,-0.968627,-0.058824,0,73,b00
2026-05-19T04:49:17.384+00:00,1779166157384077000,95,R,9183,8332,9214,10435,9183,8332,9214,10435,24512,24522,19549,22153,48,-249,-16,0.188235,-0.976471,-0.062745,0,73,c00
2026-05-19T04:49:17.384+00:00,1779166157384091000,96,R,9183,8333,9214,10435,9183,8333,9214,10435,24511,24518,19544,22150,48,-250,-15,0.188235,-0.980392,-0.058824,0,73,d00
2026-05-19T04:49:17.384+00:00,1779166157384104000,97,R,9182,8332,9212,10435,9182,8332,9212,10435,24511,24522,19545,22150,48,-250,-15,0.188235,-0.980392,-0.058824,0,73,e00
2026-05-19T04:49:17.534+00:00,1779166157534290000,98,R,9180,8331,9209,10434,9180,8331,9209,10434,24512,24516,19543,22142,49,-250,-15,0.192157,-0.980392,-0.058824,0,73,f00
2026-05-19T04:49:17.534+00:00,1779166157534341000,99,R,9180,8330,9210,10434,9180,8330,9210,10434,24513,24512,19543,22149,50,-250,-15,0.196078,-0.980392,-0.058824,0,73,000
2026-05-19T04:49:17.534+00:00,1779166157534375000,100,R,9183,8332,9211,10435,9183,8332,9211,10435,24517,24517,19541,22148,49,-251,-13,0.192157,-0.984314,-0.05098,0,73,100
2026-05-19T04:49:17.534+00:00,1779166157534396000,101,R,9183,8333,9210,10434,9183,8333,9210,10434,24511,24513,19544,22150,50,-249,-15,0.196078,-0.976471,-0.058824,0,73,200
2026-05-19T04:49:17.534+00:00,1779166157534414000,102,R,9180,8331,9209,10434,9180,8331,9209,10434,24513,24512,19545,22148,51,-249,-13,0.2,-0.976471,-0.05098,0,73,300
2026-05-19T04:49:17.684+00:00,1779166157684736000,103,R,9181,8332,9211,10435,9181,8332,9211,10435,24513,24514,19544,22151,51,-249,-13,0.2,-0.976471,-0.05098,0,73,400
2026-05-19T04:49:17.684+00:00,1779166157684827000,104,R,9182,8333,9212,10437,9182,8333,9212,10437,24513,24517,19542,22149,52,-249,-14,0.203922,-0.976471,-0.054902,0,73,500
2026-05-19T04:49:17.684+00:00,1779166157684867000,105,R,9183,8332,9212,10436,9183,8332,9212,10436,24519,24520,19542,22150,51,-250,-13,0.2,-0.980392,-0.05098,0,73,600
2026-05-19T04:49:17.684+00:00,1779166157684913000,106,R,9217,8321,9267,10419,9217,8321,9267,10419,24601,24630,19532,22123,56,-249,-10,0.219608,-0.976471,-0.039216,0,75,e2310
2026-05-19T04:49:17.684+00:00,1779166157684951000,107,R,9219,8322,9265,10419,9219,8322,9265,10419,24599,24630,19532,22122,57,-248,-10,0.223529,-0.972549,-0.039216,0,75,f2310
2026-05-19T04:49:17.684+00:00,1779166157684987000,108,R,9219,8325,9265,10421,9219,8325,9265,10421,24601,24628,19534,22122,57,-249,-9,0.223529,-0.976471,-0.035294,0,75,02310
2026-05-19T04:49:17.834+00:00,1779166157834455000,109,R,9220,8324,9266,10420,9220,8324,9266,10420,24598,24627,19535,22122,56,-248,-9,0.219608,-0.972549,-0.035294,0,75,12310
2026-05-19T04:49:17.834+00:00,1779166157834553000,110,R,9217,8325,9268,10421,9217,8325,9268,10421,24602,24629,19534,22124,56,-248,-9,0.219608,-0.972549,-0.035294,0,75,22310
2026-05-19T04:49:17.834+00:00,1779166157834593000,111,R,9222,8331,9270,10431,9222,8331,9270,10431,24608,24638,19541,22133,54,-249,-9,0.211765,-0.976471,-0.035294,0,75,32470
2026-05-19T04:49:17.834+00:00,1779166157834629000,112,R,9226,8335,9268,10429,9226,8335,9268,10429,24608,24636,19545,22133,54,-249,-9,0.211765,-0.976471,-0.035294,0,75,42470
2026-05-19T04:49:17.834+00:00,1779166157834663000,113,R,9225,8334,9272,10431,9225,8334,9272,10431,24609,24634,19546,22130,55,-249,-10,0.215686,-0.976471,-0.039216,0,75,52470
2026-05-19T04:49:17.984+00:00,1779166157984365000,114,R,9226,8336,9270,10434,9226,8336,9270,10434,24609,24637,19551,22139,54,-249,-10,0.211765,-0.976471,-0.039216,0,75,62470
2026-05-19T04:49:17.984+00:00,1779166157984414000,115,R,9226,8338,9273,10436,9226,8338,9273,10436,24612,24636,19548,22138,55,-249,-10,0.215686,-0.976471,-0.039216,0,75,72470
2026-05-19T04:49:17.984+00:00,1779166157984435000,116,R,9233,8342,9277,10441,9233,8342,9277,10441,24624,24647,19554,22144,56,-248,-8,0.219608,-0.972549,-0.031373,0,75,d2520
2026-05-19T04:49:17.984+00:00,1779166157984453000,117,R,9235,8343,9277,10444,9235,8343,9277,10444,24632,24646,19558,22148,56,-247,-9,0.219608,-0.968627,-0.035294,0,75,e2520
2026-05-19T04:49:17.984+00:00,1779166157984469000,118,R,9236,8343,9280,10441,9236,8343,9280,10441,24632,24650,19557,22147,56,-249,-9,0.219608,-0.976471,-0.035294,0,75,f2520
2026-05-19T04:49:18.136+00:00,1779166158136232000,119,R,9240,8345,9280,10443,9240,8345,9280,10443,24632,24647,19557,22149,55,-249,-9,0.215686,-0.976471,-0.035294,0,75,02520
2026-05-19T04:49:18.136+00:00,1779166158136348000,120,R,9236,8343,9280,10445,9236,8343,9280,10445,24634,24650,19558,22154,56,-248,-8,0.219608,-0.972549,-0.031373,0,75,12520
2026-05-19T04:49:18.136+00:00,1779166158136406000,121,R,9239,8344,9281,10448,9239,8344,9281,10448,24638,24656,19560,22156,54,-249,-9,0.211765,-0.976471,-0.035294,0,75,22520
2026-05-19T04:49:18.136+00:00,1779166158136455000,122,R,9245,8346,9283,10450,9245,8346,9283,10450,24646,24659,19559,22160,57,-250,-9,0.223529,-0.980392,-0.035294,0,75,92580
2026-05-19T04:49:18.136+00:00,1779166158136503000,123,R,9244,8341,9283,10446,9244,8341,9283,10446,24648,24655,19560,22158,56,-250,-9,0.219608,-0.980392,-0.035294,0,75,a2580
2026-05-19T04:49:18.285+00:00,1779166158285734000,124,R,9240,8342,9280,10445,9240,8342,9280,10445,24643,24654,19558,22158,56,-249,-10,0.219608,-0.976471,-0.039216,0,75,b2580
2026-05-19T04:49:18.285+00:00,1779166158285859000,125,R,9238,8341,9278,10441,9238,8341,9278,10441,24638,24656,19555,22152,54,-250,-9,0.211765,-0.980392,-0.035294,0,75,c2580
2026-05-19T04:49:18.285+00:00,1779166158285937000,126,R,9237,8337,9275,10437,9237,8337,9275,10437,24639,24649,19551,22147,56,-249,-9,0.219608,-0.976471,-0.035294,0,75,d2580
2026-05-19T04:49:18.286+00:00,1779166158286020000,127,R,9228,8332,9269,10430,9228,8332,9269,10430,24623,24645,19548,22141,54,-249,-9,0.211765,-0.976471,-0.035294,0,75,42640
2026-05-19T04:49:18.286+00:00,1779166158286090000,128,R,9229,8333,9270,10429,9229,8333,9270,10429,24626,24640,19547,22135,53,-248,-7,0.207843,-0.972549,-0.027451,0,75,52640
2026-05-19T04:49:18.286+00:00,1779166158286155000,129,R,9232,8332,9270,10428,9232,8332,9270,10428,24621,24639,19546,22135,53,-250,-8,0.207843,-0.980392,-0.031373,0,75,62640
2026-05-19T04:49:18.436+00:00,1779166158436781000,130,R,9228,8330,9267,10426,9228,8330,9267,10426,24622,24641,19545,22134,53,-248,-7,0.207843,-0.972549,-0.027451,0,75,72640
2026-05-19T04:49:18.436+00:00,1779166158436847000,131,R,9228,8330,9270,10426,9228,8330,9270,10426,24625,24640,19548,22136,54,-248,-8,0.211765,-0.972549,-0.031373,0,75,82640
2026-05-19T04:49:18.436+00:00,1779166158436875000,132,R,9227,8331,9269,10430,9227,8331,9269,10430,24625,24641,19548,22139,54,-250,-8,0.211765,-0.980392,-0.031373,0,75,f2700
2026-05-19T04:49:18.436+00:00,1779166158436900000,133,R,9228,8331,9268,10427,9228,8331,9268,10427,24624,24642,19551,22140,54,-249,-9,0.211765,-0.976471,-0.035294,0,75,02700
2026-05-19T04:49:18.436+00:00,1779166158436924000,134,R,9228,8332,9271,10430,9228,8332,9271,10430,24621,24644,19549,22136,54,-247,-9,0.211765,-0.968627,-0.035294,0,75,12700
2026-05-19T04:49:18.735+00:00,1779166158736049000,135,R,9226,8333,9268,10430,9226,8333,9268,10430,24619,24635,19551,22136,54,-248,-9,0.211765,-0.972549,-0.035294,0,75,22700
2026-05-19T04:49:18.736+00:00,1779166158736214000,136,R,9227,8333,9268,10428,9227,8333,9268,10428,24621,24641,19552,22134,54,-248,-11,0.211765,-0.972549,-0.043137,0,75,32700
2026-05-19T04:49:18.736+00:00,1779166158736296000,137,R,9236,8343,9277,10442,9236,8343,9277,10442,24637,24657,19566,22154,54,-247,-9,0.211765,-0.968627,-0.035294,0,75,62880
2026-05-19T04:49:18.736+00:00,1779166158736365000,138,R,9238,8345,9279,10443,9238,8345,9279,10443,24637,24652,19561,22153,54,-248,-9,0.211765,-0.972549,-0.035294,0,75,72880
2026-05-19T04:49:18.736+00:00,1779166158736433000,139,R,9237,8345,9280,10443,9237,8345,9280,10443,24637,24654,19564,22153,54,-248,-9,0.211765,-0.972549,-0.035294,0,75,82880
2026-05-19T04:49:18.885+00:00,1779166158885482000,140,R,9239,8347,9280,10446,9239,8347,9280,10446,24639,24656,19561,22153,55,-248,-8,0.215686,-0.972549,-0.031373,0,75,92880
2026-05-19T04:49:18.885+00:00,1779166158885525000,141,R,9241,8348,9281,10448,9241,8348,9281,10448,24642,24657,19566,22155,55,-248,-9,0.215686,-0.972549,-0.035294,0,75,a2880
