host_time_iso,host_time_unix_ns,sample_index,record_type,ir1,ir2,ir3,ir4,ir1_repeat,ir2_repeat,ir3_repeat,ir4_repeat,red1,red2,red3,red4,accel_x_raw,accel_y_raw,accel_z_raw,accel_x_g,accel_y_g,accel_z_g,reserved,heart_rate,debug,host_time,elapsed_s_host,elapsed_s_sample,elapsed_s,ir_mean,red_mean,ir_ac_pct,red_ac_pct,accel_mag_g,accel_dynamic_g
2026-05-22T02:37:45.500+00:00,1779417465501939000,1,R,7482,7763,8994,10194,7482,7763,8994,10194,19095,23410,18433,22074,-126,-219,-15,-0.494118,-0.858824,-0.058824,1,255,e00,2026-05-22 02:37:45.500000+00:00,0.0,0.0,0.0,8608.25,20753.0,-0.10444167222721866,-0.03612629753618651,0.992568145708898,-0.00906040947161424
2026-05-22T02:37:45.502+00:00,1779417465502210000,2,R,7485,7765,8991,10194,7485,7765,8991,10194,19095,23405,18432,22079,-128,-220,-16,-0.501961,-0.862745,-0.062745,1,255,f00,2026-05-22 02:37:45.502000+00:00,0.002,0.03333333333333333,0.002,8608.75,20752.75,-0.11312873469861345,-0.043950751076191334,1.000115351132558,-0.0014711974140182438
2026-05-22T02:37:45.502+00:00,1779417465502346000,3,R,7487,7765,8992,10196,7487,7765,8992,10196,19098,23403,18431,22079,-127,-221,-16,-0.498039,-0.866667,-0.062745,1,255,000,2026-05-22 02:37:45.502000+00:00,0.002,0.06666666666666667,0.002,8610.0,20752.75,-0.11311232924388759,-0.05057011787653667,1.00154454191264,-8.401326787210728e-05
2026-05-22T02:37:45.502+00:00,1779417465502410000,4,R,7486,7766,8991,10195,7486,7766,8991,10195,19097,23400,18429,22078,-125,-222,-17,-0.490196,-0.870588,-0.066667,1,255,100,2026-05-22 02:37:45.502000+00:00,0.002,0.1,0.002,8609.5,20751.0,-0.12760280726175977,-0.06020179642160522,1.001329153200385,-0.0004107166500890713
2026-05-22T02:37:45.502+00:00,1779417465502452000,5,R,7485,7761,8989,10194,7485,7761,8989,10194,19093,23401,18426,22081,-126,-223,-16,-0.494118,-0.87451,-0.062745,1,255,200,2026-05-22 02:37:45.502000+00:00,0.002,0.13333333333333333,0.002,8607.25,20750.25,-0.1623894446860954,-0.06501715730540003,1.0064081046220763,0.00455692010164066
2026-05-22T02:37:45.502+00:00,1779417465502491000,6,R,7487,7761,8991,10195,7487,7761,8991,10195,19098,23399,18428,22082,-125,-225,-18,-0.490196,-0.882353,-0.070588,1,255,300,2026-05-22 02:37:45.502000+00:00,0.002,0.16666666666666666,0.002,8608.5,20751.75,-0.1493381276188543,-0.058394687889423334,1.0118406993044904,0.010100829454016358
2026-05-22T02:37:45.650+00:00,1779417465650815000,7,R,7486,7759,8991,10195,7486,7759,8991,10195,19101,23403,18421,22082,-127,-224,-17,-0.498039,-0.878431,-0.066667,1,255,400,2026-05-22 02:37:45.650000+00:00,0.15,0.2,0.15,8607.75,20751.75,-0.15948500840920954,-0.05899633981891736,1.0119922708059583,0.010141086285522682
2026-05-22T02:37:45.650+00:00,1779417465650971000,8,R,7484,7758,8992,10193,7484,7758,8992,10193,19096,23403,18416,22086,-126,-223,-18,-0.494118,-0.87451,-0.070588,1,255,500,2026-05-22 02:37:45.650000+00:00,0.15,0.23333333333333334,0.15,8606.75,20750.25,-0.18121457255106627,-0.0770480948654668,1.0069275067093957,0.0051876368589216515
2026-05-22T02:37:45.651+00:00,1779417465651060000,9,R,7488,7757,8993,10197,7488,7757,8993,10197,19097,23403,18417,22082,-128,-218,-18,-0.501961,-0.854902,-0.070588,1,255,600,2026-05-22 02:37:45.651000+00:00,0.151,0.26666666666666666,0.151,8608.75,20749.75,-0.1681500594323486,-0.09028095432987457,0.993883766277023,-0.007744788903489175
2026-05-22T02:37:45.651+00:00,1779417465651133000,10,R,7491,7757,8992,10195,7491,7757,8992,10195,19095,23407,18416,22084,-129,-219,-17,-0.505882,-0.858824,-0.066667,1,255,700,2026-05-22 02:37:45.651000+00:00,0.151,0.3,0.151,8608.75,20750.5,-0.1710442395778976,-0.0920815854884236,0.9989693437683661,-0.0026592114121460897
2026-05-22T02:37:45.651+00:00,1779417465651199000,11,R,7490,7757,8994,10198,7490,7757,8994,10198,19097,23407,18412,22084,-131,-221,-16,-0.513725,-0.866667,-0.062745,1,255,800,2026-05-22 02:37:45.651000+00:00,0.151,0.3333333333333333,0.151,8609.75,20750.0,-0.16234236845919697,-0.0999000999000999,1.009436476227702,0.0078079210471897476
2026-05-22T02:37:45.800+00:00,1779417465800848000,12,R,7495,7759,8996,10196,7495,7759,8996,10196,19102,23404,18416,22086,-131,-219,-16,-0.513725,-0.858824,-0.062745,1,255,900,2026-05-22 02:37:45.800000+00:00,0.3,0.36666666666666664,0.3,8611.5,20752.0,-0.14928618015798245,-0.09147368927832074,1.0027108125606305,0.0011242640140542992
2026-05-22T02:37:45.800+00:00,1779417465800991000,13,R,7496,7758,8999,10200,7496,7758,8999,10200,19111,23405,18415,22094,-131,-220,-16,-0.513725,-0.862745,-0.062745,1,255,a00,2026-05-22 02:37:45.800000+00:00,0.3,0.4,0.3,8613.25,20756.25,-0.13623188405797101,-0.07221520129987362,1.0060711931444017,0.004526651231761658
2026-05-22T02:37:45.801+00:00,1779417465801067000,14,R,7499,7756,9001,10204,7499,7756,9001,10204,19112,23409,18412,22096,-129,-220,-17,-0.505882,-0.862745,-0.066667,1,255,b00,2026-05-22 02:37:45.801000+00:00,0.301,0.43333333333333335,0.301,8615.0,20757.25,-0.12462684404254702,-0.07341436996028403,1.0023422678097538,0.0009054202532412514
2026-05-22T02:37:45.801+00:00,1779417465801134000,15,R,7501,7754,9000,10205,7501,7754,9000,10205,19116,23407,18410,22097,-126,-221,-16,-0.494118,-0.866667,-0.062745,1,255,c00,2026-05-22 02:37:45.801000+00:00,0.301,0.4666666666666667,0.301,8615.0,20757.5,-0.13331014895960122,-0.0782237198387388,0.9996005311313114,-0.0019440107813286645
2026-05-22T02:37:45.801+00:00,1779417465801199000,16,R,7505,7757,9000,10207,7505,7757,9000,10207,19121,23413,18408,22100,-127,-218,-17,-0.498039,-0.854902,-0.066667,1,255,d00,2026-05-22 02:37:45.801000+00:00,0.301,0.5,0.301,8617.25,20760.5,-0.1159117911269524,-0.06739031023610677,0.9916374155980603,-0.00994913294851596
2026-05-22T02:37:45.949+00:00,1779417465949367000,17,R,7511,7756,9010,10208,7511,7756,9010,10208,19123,23414,18409,22107,-130,-219,-16,-0.509804,-0.858824,-0.062745,1,255,e00,2026-05-22 02:37:45.949000+00:00,0.449,0.5333333333333333,0.449,8621.25,20763.25,-0.0782336578581363,-0.05776103777331199,1.0007076078540624,-0.0009209473264497614
2026-05-22T02:37:45.949+00:00,1779417465949500000,18,R,7508,7759,9003,10209,7508,7759,9003,10209,19127,23414,18411,22103,-129,-220,-17,-0.505882,-0.862745,-0.066667,1,255,f00,2026-05-22 02:37:45.949000+00:00,0.449,0.5666666666666667,0.449,8619.75,20763.75,-0.09996088487113738,-0.061968678743539916,1.0023422678097538,0.0007137126292415807
2026-05-22T02:37:45.949+00:00,1779417465949578000,19,R,7511,7758,9006,10211,7511,7758,9006,10211,19130,23417,18406,22103,-130,-222,-16,-0.509804,-0.870588,-0.062745,1,255,000,2026-05-22 02:37:45.949000+00:00,0.449,0.6,0.449,8621.5,20764.0,-0.08402143995364335,-0.06737895851381269,1.0108217049435573,0.009193149763045083
2026-05-22T02:37:45.949+00:00,1779417465949646000,20,R,7513,7760,9007,10213,7513,7760,9007,10213,19130,23423,18412,22109,-131,-221,-16,-0.513725,-0.866667,-0.062745,1,255,100,2026-05-22 02:37:45.949000+00:00,0.449,0.6333333333333333,0.449,8623.25,20768.5,-0.07387343018960847,-0.046322755301549105,1.009436476227702,0.0078079210471897476
2026-05-22T02:37:45.949+00:00,1779417465949709000,21,R,7512,7760,9011,10212,7512,7760,9011,10212,19135,23423,18415,22110,-131,-220,-14,-0.513725,-0.862745,-0.054902,1,255,200,2026-05-22 02:37:45.949000+00:00,0.449,0.6666666666666666,0.449,8623.75,20770.75,-0.07821099588668096,-0.036095436333666214,1.0056125199369785,0.0039839647564663405
2026-05-22T02:37:45.949+00:00,1779417465949773000,22,R,7513,7758,9012,10217,7513,7758,9012,10217,19137,23424,18413,22111,-131,-219,-13,-0.513725,-0.858824,-0.05098,1,255,300,2026-05-22 02:37:45.949000+00:00,0.449,0.7,0.449,8625.0,20771.25,-0.07530556681920872,-0.03970259149642677,1.0020434117347412,0.00045686318816495763
2026-05-22T02:37:46.099+00:00,1779417466099527000,23,R,7514,7761,9014,10217,7514,7761,9014,10217,19138,23431,18415,22111,-130,-221,-13,-0.509804,-0.866667,-0.05098,1,255,400,2026-05-22 02:37:46.099000+00:00,0.599,0.7333333333333333,0.599,8626.5,20773.75,-0.06950477845351868,-0.0336850209929863,1.0067823834896001,0.005237841576960056
2026-05-22T02:37:46.099+00:00,1779417466099662000,24,R,7515,7763,9016,10218,7515,7763,9016,10218,19137,23431,18416,22117,-130,-220,-13,-0.509804,-0.862745,-0.05098,1,255,500,2026-05-22 02:37:46.099000+00:00,0.599,0.7666666666666667,0.599,8628.0,20775.25,-0.04923397723652582,-0.027669505798566,1.0034081990102532,0.0019713514537407217
2026-05-22T02:37:46.099+00:00,1779417466099734000,25,R,7518,7763,9016,10218,7518,7763,9016,10218,19143,23436,18419,22115,-129,-220,-14,-0.505882,-0.862745,-0.054902,1,255,600,2026-05-22 02:37:46.099000+00:00,0.599,0.8,0.599,8628.75,20778.25,-0.03765060240963856,-0.01443609022556391,1.0016285551805122,8.401326787210728e-05
2026-05-22T02:37:46.099+00:00,1779417466099805000,26,R,7518,7764,9019,10221,7518,7764,9019,10221,19143,23440,18412,22117,-127,-221,-15,-0.498039,-0.866667,-0.058824,1,255,700,2026-05-22 02:37:46.099000+00:00,0.599,0.8333333333333334,0.599,8630.5,20778.0,-0.011585471818339802,-0.014436263894904,1.0013065451628687,-0.0001303023936438663
2026-05-22T02:37:46.099+00:00,1779417466099871000,27,R,7520,7766,9020,10224,7520,7766,9020,10224,19146,23443,18415,22121,-125,-222,-16,-0.490196,-0.870588,-0.062745,1,255,800,2026-05-22 02:37:46.099000+00:00,0.599,0.8666666666666667,0.599,8632.5,20781.25,0.01737921445950643,0.00240607292807045,1.001075681047642,-0.00046886086499808854
2026-05-22T02:37:46.249+00:00,1779417466249288000,28,R,7522,7764,9023,10227,7522,7764,9023,10227,19141,23445,18413,22124,-124,-222,-16,-0.486275,-0.870588,-0.062745,1,255,900,2026-05-22 02:37:46.249000+00:00,0.749,0.9,0.749,8634.0,20780.75,0.03765605538336761,0.0060155441661252675,0.9991615366866361,-0.0024250118599401516
2026-05-22T02:37:46.249+00:00,1779417466249414000,29,R,7524,7764,9022,10225,7524,7764,9022,10225,19150,23446,18415,22123,-124,-222,-15,-0.486275,-0.870588,-0.058824,1,255,a00,2026-05-22 02:37:46.249000+00:00,0.749,0.9333333333333333,0.749,8633.75,20783.5,0.0376571461676612,0.02526680543356635,0.9989229721780354,-0.002705583002476808
2026-05-22T02:37:46.249+00:00,1779417466249487000,30,R,7525,7767,9024,10227,7525,7767,9024,10227,19152,23453,18419,22125,-124,-221,-15,-0.486275,-0.866667,-0.058824,1,255,b00,2026-05-22 02:37:46.249000+00:00,0.749,0.9666666666666667,0.749,8635.75,20787.25,0.06083077457852963,0.04391637840276733,0.9955075727938989,-0.006120982386613294
2026-05-22T02:37:46.249+00:00,1779417466249554000,31,R,7525,7768,9023,10229,7525,7768,9023,10229,19152,23449,18420,22127,-127,-221,-14,-0.498039,-0.866667,-0.054902,1,255,c00,2026-05-22 02:37:46.249000+00:00,0.749,1.0,0.749,8636.25,20787.0,0.06662418168124674,0.04331504475887958,1.0010837947015225,-0.0005447604789896587
2026-05-22T02:37:46.249+00:00,1779417466249617000,32,R,7527,7766,9026,10232,7527,7766,9026,10232,19152,23456,18422,22129,-128,-220,-14,-0.501961,-0.862745,-0.054902,1,255,d00,2026-05-22 02:37:46.249000+00:00,0.749,1.0333333333333334,0.749,8637.75,20789.75,0.08400440298939807,0.05655019732409279,0.999653945198037,-0.0019746099824752283
2026-05-22T02:37:46.399+00:00,1779417466399377000,33,R,7529,7768,9030,10231,7529,7768,9030,10231,19150,23455,18423,22128,-130,-220,-14,-0.509804,-0.862745,-0.054902,1,255,e00,2026-05-22 02:37:46.399000+00:00,0.899,1.0666666666666667,0.899,8639.5,20789.0,0.10428132784890794,0.052940610260852825,1.0036151070231059,0.0017639225026702121
2026-05-22T02:37:46.399+00:00,1779417466399465000,34,R,7530,7770,9028,10233,7530,7770,9028,10233,19155,23456,18424,22132,-129,-220,-15,-0.505882,-0.862745,-0.058824,1,255,f00,2026-05-22 02:37:46.399000+00:00,0.899,1.1,0.899,8640.25,20791.75,0.1129714385029836,0.06617576282606603,1.0018511845204356,0.0
2026-05-22T02:37:46.399+00:00,1779417466399498000,35,R,7529,7771,9031,10234,7529,7771,9031,10234,19158,23456,18425,22135,-130,-220,-14,-0.509804,-0.862745,-0.054902,1,255,000,2026-05-22 02:37:46.399000+00:00,0.899,1.1333333333333333,0.899,8641.25,20793.5,0.12455825270841782,0.07459813264029262,1.0036151070231059,0.0017639225026702121
2026-05-22T02:37:46.399+00:00,1779417466399526000,36,R,7529,7775,9028,10236,7529,7775,9028,10236,19158,23457,18427,22134,-129,-220,-14,-0.505882,-0.862745,-0.054902,1,255,100,2026-05-22 02:37:46.399000+00:00,0.899,1.1666666666666667,0.899,8642.0,20794.0,0.1332483633624935,0.07700452401578593,1.0016285551805122,-0.00022262933992345246
2026-05-22T02:37:46.399+00:00,1779417466399552000,37,R,7530,7774,9032,10236,7530,7774,9032,10236,19159,23463,18426,22137,-129,-221,-14,-0.505882,-0.866667,-0.054902,1,255,200,2026-05-22 02:37:46.399000+00:00,0.899,1.2,0.899,8643.0,20796.25,0.1448351775679277,0.08783328520550582,1.0050087145975404,0.003157530077104731
2026-05-22T02:37:46.399+00:00,1779417466399578000,38,R,7535,7777,9034,10239,7535,7777,9034,10239,19158,23462,18430,22140,-127,-221,-14,-0.498039,-0.866667,-0.054902,1,255,300,2026-05-22 02:37:46.399000+00:00,0.899,1.2333333333333334,0.899,8646.25,20797.5,0.1824923237355889,0.0938492636442391,1.0010837947015225,-0.0007673898189131112
2026-05-22T02:37:46.551+00:00,1779417466551776000,39,R,7535,7776,9035,10242,7535,7776,9035,10242,19164,23462,18431,22140,-126,-221,-15,-0.494118,-0.866667,-0.058824,1,255,400,2026-05-22 02:37:46.551000+00:00,1.051,1.2666666666666666,1.051,8647.0,20799.25,0.19118243438966456,0.10227163345846568,0.9993620714180621,-0.0024891131023735413
2026-05-22T02:37:46.551+00:00,1779417466551931000,40,R,7536,7776,9036,10240,7536,7776,9036,10240,19165,23466,18430,22142,-126,-221,-14,-0.494118,-0.866667,-0.054902,1,255,500,2026-05-22 02:37:46.551000+00:00,1.051,1.3,1.051,8647.0,20800.75,0.19118243438966456,0.10949080758494562,0.999138887451089,-0.002712297069346614
2026-05-22T02:37:46.551+00:00,1779417466552006000,41,R,7537,7778,9038,10244,7537,7778,9038,10244,19165,23467,18432,22146,-125,-220,-15,-0.490196,-0.862745,-0.058824,1,255,600,2026-05-22 02:37:46.551000+00:00,1.051,1.3333333333333333,1.051,8649.25,20802.5,0.21725276635189156,0.1179131773991722,0.9940227947170025,-0.007828389803433145
2026-05-22T02:37:46.552+00:00,1779417466552105000,42,R,7538,7780,9039,10244,7538,7780,9039,10244,19170,23472,18432,22147,-126,-221,-14,-0.494118,-0.866667,-0.054902,1,255,700,2026-05-22 02:37:46.552000+00:00,1.052,1.3666666666666667,1.052,8650.25,20805.25,0.22883958055732576,0.1311483299643854,0.999138887451089,-0.0024896677294231617
2026-05-22T02:37:46.552+00:00,1779417466552172000,43,R,7540,7781,9042,10247,7540,7781,9042,10247,19174,23471,18436,22151,-127,-220,-14,-0.498039,-0.862745,-0.054902,1,255,800,2026-05-22 02:37:46.552000+00:00,1.052,1.4,1.052,8652.5,20808.0,0.25490991251955275,0.14438348252959862,0.997690337805273,-0.003938217375239139
2026-05-22T02:37:46.700+00:00,1779417466700654000,44,R,7539,7780,9039,10247,7539,7780,9039,10247,19168,23468,18433,22147,-128,-220,-15,-0.501961,-0.862745,-0.058824,1,255,900,2026-05-22 02:37:46.700000+00:00,1.2,1.4333333333333333,1.2,8651.25,20804.0,0.24042639476275998,0.12513235152565214,0.9998770141982463,-0.0014295309646223942
2026-05-22T02:37:46.700+00:00,1779417466700767000,45,R,7538,7778,9040,10245,7538,7778,9040,10245,19169,23474,18432,22146,-129,-220,-15,-0.505882,-0.862745,-0.058824,1,255,a00,2026-05-22 02:37:46.700000+00:00,1.2,1.4666666666666666,1.2,8650.25,20805.25,0.22883958055732576,0.1311483299643854,1.0018511845204356,0.0007673898189131112
2026-05-22T02:37:46.700+00:00,1779417466700833000,46,R,7538,7777,9039,10242,7538,7777,9039,10242,19171,23470,18432,22143,-128,-221,-15,-0.501961,-0.866667,-0.058824,1,255,b00,2026-05-22 02:37:46.700000+00:00,1.2,1.5,1.2,8649.0,20804.0,0.214356062800533,0.12513235152565214,1.0032630748642153,0.001956529701346632
2026-05-22T02:37:46.700+00:00,1779417466700896000,47,R,7534,7772,9035,10237,7534,7772,9035,10237,19166,23463,18425,22137,-128,-222,-15,-0.501961,-0.870588,-0.058824,1,255,c00,2026-05-22 02:37:46.700000+00:00,1.2,1.5333333333333334,1.2,8644.5,20797.75,0.16221539887607903,0.09505245933198575,1.0066521614942274,0.005345616331358771
2026-05-22T02:37:46.701+00:00,1779417466701192000,48,R,7531,7772,9032,10233,7531,7772,9032,10233,19163,23465,18423,22132,-129,-223,-14,-0.505882,-0.87451,-0.054902,1,255,d00,2026-05-22 02:37:46.701000+00:00,1.201,1.5666666666666667,1.201,8642.0,20795.75,0.12744757270304716,0.0854268938300125,1.0117799007827741,0.010235358870134048
2026-05-22T02:37:46.851+00:00,1779417466851757000,49,R,7531,7768,9030,10232,7531,7768,9030,10232,19159,23460,18418,22128,-128,-222,-16,-0.501961,-0.870588,-0.062745,1,255,e00,2026-05-22 02:37:46.851000+00:00,1.351,1.6,1.351,8640.25,20791.25,0.10427226647356988,0.06256542297835477,1.0068888947098384,0.0053443527971983595
2026-05-22T02:37:46.851+00:00,1779417466851900000,50,R,7529,7767,9028,10225,7529,7767,9028,10225,19158,23455,18419,22125,-128,-220,-16,-0.501961,-0.862745,-0.062745,1,255,f00,2026-05-22 02:37:46.851000+00:00,1.351,1.6333333333333333,1.351,8637.25,20789.25,0.06082020389249305,0.04932864911689687,1.000115351132558,-0.0014291907800820791
2026-05-22T02:37:46.851+00:00,1779417466851975000,51,R,7529,7764,9026,10225,7529,7764,9026,10225,19158,23454,18415,22122,-128,-219,-16,-0.501961,-0.858824,-0.062745,1,255,000,2026-05-22 02:37:46.851000+00:00,1.351,1.6666666666666667,1.351,8636.0,20787.25,0.040544454097885894,0.03729637382997666,0.9967348912935676,-0.004809650619072459
2026-05-22T02:37:46.852+00:00,1779417466852040000,52,R,7526,7765,9024,10224,7526,7765,9024,10224,19155,23449,18415,22119,-128,-220,-16,-0.501961,-0.862745,-0.062745,1,255,100,2026-05-22 02:37:46.852000+00:00,1.352,1.7,1.352,8634.75,20784.5,0.023167588543627465,0.018045546960528375,1.000115351132558,-0.0014291907800820791
2026-05-22T02:37:46.852+00:00,1779417466852178000,53,R,7524,7765,9022,10220,7524,7765,9022,10220,19152,23446,18416,22115,-127,-220,-16,-0.498039,-0.862745,-0.062745,1,255,200,2026-05-22 02:37:46.852000+00:00,1.352,1.7333333333333334,1.352,8632.75,20782.25,0.0,0.00481203007518797,0.9981526514371436,-0.003391890475496484
2026-05-22T02:37:46.999+00:00,1779417466999676000,54,R,7524,7765,9021,10218,7524,7765,9021,10218,19151,23449,18414,22113,-128,-220,-16,-0.501961,-0.862745,-0.062745,1,255,300,2026-05-22 02:37:46.999000+00:00,1.499,1.7666666666666666,1.499,8632.0,20781.75,-0.01447890423652738,0.00120299304670019,1.000115351132558,-0.0014291907800820791
2026-05-22T02:37:46.999+00:00,1779417466999815000,55,R,7524,7763,9020,10215,7524,7763,9020,10215,19149,23450,18414,22115,-129,-221,-16,-0.505882,-0.866667,-0.062745,1,255,400,2026-05-22 02:37:46.999000+00:00,1.499,1.8,1.499,8630.5,20782.0,-0.037642970899087885,0.0012029785749515802,1.0054676632483017,0.003923121335661639
2026-05-22T02:37:46.999+00:00,1779417466999890000,56,R,7523,7765,9022,10214,7523,7765,9022,10214,19148,23442,18410,22110,-130,-219,-16,-0.509804,-0.858824,-0.062745,1,255,500,2026-05-22 02:37:46.999000+00:00,1.499,1.8333333333333333,1.499,8631.0,20777.5,-0.03474635163307853,-0.020450635774176863,1.0007076078540624,-0.0008369340585776541
2026-05-22T02:37:46.999+00:00,1779417466999956000,57,R,7521,7764,9019,10214,7521,7764,9019,10214,19145,23442,18413,22111,-131,-219,-17,-0.513725,-0.858824,-0.066667,1,255,600,2026-05-22 02:37:46.999000+00:00,1.499,1.8666666666666667,1.499,8629.5,20777.75,-0.06080083384000695,-0.02045038976036955,1.0029638714779312,0.0013353162974190091
2026-05-22T02:37:47.000+00:00,1779417467000019000,58,R,7519,7759,9021,10215,7519,7759,9021,10215,19144,23439,18414,22109,-132,-220,-16,-0.517647,-0.862745,-0.062745,1,255,700,2026-05-22 02:37:47+00:00,1.5,1.9,1.5,8628.5,20776.5,-0.07527504342790967,-0.027667841547474408,1.0080795041359585,0.006228319615522837
2026-05-22T02:37:47.000+00:00,1779417467000082000,59,R,7518,7760,9015,10212,7518,7760,9015,10212,19140,23438,18408,22104,-131,-221,-17,-0.513725,-0.866667,-0.066667,1,255,800,2026-05-22 02:37:47+00:00,1.5,1.9333333333333333,1.5,8626.25,20772.5,-0.11000781634484555,-0.052926600428224314,1.0096878494876522,0.007836664967216578
2026-05-22T02:37:47.149+00:00,1779417467149426000,60,R,7517,7760,9013,10210,7517,7760,9013,10210,19135,23436,18409,22106,-129,-221,-18,-0.505882,-0.866667,-0.070588,1,255,900,2026-05-22 02:37:47.149000+00:00,1.649,1.9666666666666666,1.649,8625.0,20771.5,-0.12737378415933304,-0.05773810955806288,1.0059875508956362,0.0036452830858824115
2026-05-22T02:37:47.149+00:00,1779417467149567000,61,R,7517,7762,9015,10212,7517,7762,9015,10212,19136,23432,18408,22101,-128,-220,-17,-0.501961,-0.862745,-0.066667,1,255,a00,2026-05-22 02:37:47.149000+00:00,1.649,2.0,1.649,8626.5,20769.25,-0.11289622231871473,-0.06856400510019968,1.0003690666124179,-0.0019732011973359054
2026-05-22T02:37:47.149+00:00,1779417467149641000,62,R,7515,7763,9015,10211,7515,7763,9015,10211,19136,23434,18412,22103,-128,-222,-16,-0.501961,-0.870588,-0.062745,1,255,b00,2026-05-22 02:37:47.149000+00:00,1.649,2.033333333333333,1.649,8626.0,20771.25,-0.12157702773114108,-0.05894098684052253,1.0068888947098384,0.0045466269000846715
2026-05-22T02:37:47.149+00:00,1779417467149706000,63,R,7516,7764,9016,10214,7516,7764,9016,10214,19139,23435,18412,22105,-128,-222,-17,-0.501961,-0.870588,-0.066667,1,255,c00,2026-05-22 02:37:47.149000+00:00,1.649,2.066666666666667,1.649,8627.5,20772.75,-0.10420888091240664,-0.05172372314576467,1.0071409038232932,0.00479863601353947
2026-05-22T02:37:47.149+00:00,1779417467149769000,64,R,7516,7765,9017,10213,7516,7765,9017,10213,19138,23432,18413,22103,-127,-219,-17,-0.498039,-0.858824,-0.066667,1,255,d00,2026-05-22 02:37:47.149000+00:00,1.649,2.1,1.649,8627.75,20771.5,-0.1013141897759509,-0.05773810955806288,0.9950206014882305,-0.006830583032205184
2026-05-22T02:37:47.301+00:00,1779417467301934000,65,R,7516,7764,9015,10212,7516,7764,9015,10212,19138,23435,18412,22106,-128,-221,-17,-0.501961,-0.866667,-0.066667,1,255,e00,2026-05-22 02:37:47.301000+00:00,1.801,2.1333333333333333,1.801,8626.75,20772.75,-0.11289295432177386,-0.05172372314576467,1.003753467390773,0.0019022828703374461
2026-05-22T02:37:47.302+00:00,1779417467302074000,66,R,7518,7765,9018,10213,7518,7765,9018,10213,19140,23437,18414,22104,-129,-220,-17,-0.505882,-0.862745,-0.066667,1,255,f00,2026-05-22 02:37:47.302000+00:00,1.802,2.1666666666666665,1.802,8628.5,20773.75,-0.09263011636658369,-0.046912214015926094,1.0023422678097538,0.0007137126292415807
2026-05-22T02:37:47.302+00:00,1779417467302145000,67,R,7516,7763,9017,10213,7516,7763,9017,10213,19138,23435,18416,22104,-130,-221,-14,-0.509804,-0.866667,-0.054902,1,255,000,2026-05-22 02:37:47.302000+00:00,1.802,2.2,1.802,8627.25,20773.25,-0.10710357204886238,-0.04931796858084538,1.006988598202085,0.00536004302157278
2026-05-22T02:37:47.302+00:00,1779417467302210000,68,R,7515,7765,9017,10214,7515,7765,9017,10214,19137,23432,18415,22104,-131,-221,-14,-0.513725,-0.866667,-0.054902,1,255,100,2026-05-22 02:37:47.302000+00:00,1.802,2.2333333333333334,1.802,8627.75,20772.0,-0.1013141897759509,-0.0553323549931436,1.0089793328497865,0.007434790937146385
2026-05-22T02:37:47.302+00:00,1779417467302272000,69,R,7514,7765,9015,10214,7514,7765,9015,10214,19135,23430,18415,22100,-128,-220,-14,-0.501961,-0.862745,-0.054902,1,255,200,2026-05-22 02:37:47.302000+00:00,1.802,2.2666666666666666,1.802,8627.0,20770.0,-0.10999826318531812,-0.06495537325282075,0.999653945198037,-0.001890596714603121
2026-05-22T02:37:47.451+00:00,1779417467451757000,70,R,7513,7764,9015,10213,7513,7764,9015,10213,19134,23436,18415,22103,-127,-220,-15,-0.498039,-0.862745,-0.058824,1,255,300,2026-05-22 02:37:47.451000+00:00,1.951,2.3,1.951,8626.25,20772.0,-0.11868233659468534,-0.0553323549931436,0.9979138457412042,-0.0036306961714358543
2026-05-22T02:37:47.451+00:00,1779417467451888000,71,R,7517,7766,9016,10215,7517,7766,9016,10215,19134,23437,18418,22106,-127,-220,-15,-0.498039,-0.862745,-0.058824,1,255,400,2026-05-22 02:37:47.451000+00:00,1.951,2.3333333333333335,1.951,8628.5,20773.75,-0.09263011636658369,-0.046912214015926094,0.9979138457412042,-0.0036306961714358543
2026-05-22T02:37:47.451+00:00,1779417467451965000,72,R,7516,7766,9016,10214,7516,7766,9016,10214,19135,23434,18416,22106,-126,-219,-15,-0.494118,-0.858824,-0.058824,1,255,500,2026-05-22 02:37:47.451000+00:00,1.951,2.3666666666666667,1.951,8628.0,20772.75,-0.09841949863949516,-0.05172372314576467,0.992568145708898,-0.00906040947161424
2026-05-22T02:37:47.452+00:00,1779417467452031000,73,R,7517,7767,9016,10216,7517,7767,9016,10216,19135,23439,18417,22106,-128,-220,-14,-0.501961,-0.862745,-0.054902,1,255,600,2026-05-22 02:37:47.452000+00:00,1.952,2.4,1.952,8629.0,20774.25,-0.08684073409367221,-0.044506459451006807,0.999653945198037,-0.002197239322398681
2026-05-22T02:37:47.452+00:00,1779417467452094000,74,R,7516,7765,9020,10218,7516,7765,9020,10218,19135,23442,18417,22106,-127,-220,-15,-0.498039,-0.862745,-0.058824,1,255,700,2026-05-22 02:37:47.452000+00:00,1.952,2.433333333333333,1.952,8629.75,20775.0,-0.07815666068430499,-0.040897827603627875,0.9979138457412042,-0.003937338779231414
2026-05-22T02:37:47.452+00:00,1779417467452157000,75,R,7517,7768,9017,10220,7517,7768,9017,10220,19136,23436,18419,22109,-127,-219,-15,-0.498039,-0.858824,-0.058824,1,255,800,2026-05-22 02:37:47.452000+00:00,1.952,2.466666666666667,1.952,8630.5,20775.0,-0.06947258727493777,-0.040897827603627875,0.9945259028667881,-0.007325281653647542
2026-05-22T02:37:47.602+00:00,1779417467602077000,76,R,7516,7768,9019,10218,7516,7768,9019,10218,19137,23440,18422,22105,-127,-221,-16,-0.498039,-0.866667,-0.062745,1,255,900,2026-05-22 02:37:47.602000+00:00,2.102,2.5,2.102,8630.25,20776.0,-0.07236727841139351,-0.036086318473789306,1.00154454191264,-8.401326787210728e-05
2026-05-22T02:37:47.602+00:00,1779417467602232000,77,R,7518,7770,9018,10219,7518,7770,9018,10219,19138,23441,18421,22108,-126,-221,-17,-0.494118,-0.866667,-0.066667,1,255,a00,2026-05-22 02:37:47.602000+00:00,2.102,2.533333333333333,2.102,8631.25,20777.0,-0.06078851386557054,-0.03127480934395073,0.999854377248007,-0.0017741779325052276
2026-05-22T02:37:47.602+00:00,1779417467602306000,78,R,7517,7772,9020,10222,7517,7772,9020,10222,19137,23440,18422,22113,-128,-221,-17,-0.501961,-0.866667,-0.066667,1,255,b00,2026-05-22 02:37:47.602000+00:00,2.102,2.566666666666667,2.102,8632.75,20778.0,-0.043420367046836106,-0.026463300214112157,1.003753467390773,0.0021249122102608986
2026-05-22T02:37:47.602+00:00,1779417467602382000,79,R,7518,7774,9020,10221,7518,7774,9020,10221,19137,23441,18426,22112,-128,-221,-17,-0.501961,-0.866667,-0.066667,1,255,c00,2026-05-22 02:37:47.602000+00:00,2.102,2.6,2.102,8633.25,20779.0,-0.037630984773924625,-0.02165179108427358,1.003753467390773,0.0021249122102608986
2026-05-22T02:37:47.602+00:00,1779417467602445000,80,R,7520,7777,9024,10225,7520,7777,9024,10225,19141,23446,18425,22115,-129,-221,-16,-0.505882,-0.866667,-0.062745,1,255,d00,2026-05-22 02:37:47.602000+00:00,2.102,2.6333333333333333,2.102,8636.5,20781.75,0.0,-0.008420140977217504,1.0054676632483017,0.0038391080677895317
2026-05-22T02:37:47.751+00:00,1779417467751652000,81,R,7518,7776,9020,10226,7518,7776,9020,10226,19135,23443,18425,22115,-130,-221,-16,-0.509804,-0.866667,-0.062745,1,255,e00,2026-05-22 02:37:47.751000+00:00,2.251,2.6666666666666665,2.251,8635.0,20779.5,-0.017368146818734442,-0.019246036519354297,1.0074466449048307,0.00581808972431852
2026-05-22T02:37:47.751+00:00,1779417467751689000,82,R,7522,7778,9023,10229,7522,7778,9023,10229,19139,23443,18429,22115,-131,-220,-16,-0.513725,-0.862745,-0.062745,1,255,f00,2026-05-22 02:37:47.751000+00:00,2.251,2.7,2.251,8638.0,20781.5,0.0,-0.009623018259677148,1.0060711931444017,0.004442637963889551
2026-05-22T02:37:47.751+00:00,1779417467751704000,83,R,7521,7779,9025,10227,7521,7779,9025,10227,19143,23445,18429,22117,-131,-220,-17,-0.513725,-0.862745,-0.066667,1,255,000,2026-05-22 02:37:47.751000+00:00,2.251,2.7333333333333334,2.251,8638.0,20783.5,0.0,0.0,1.0063234070312586,0.003981139221504781
2026-05-22T02:37:47.751+00:00,1779417467751718000,84,R,7523,7778,9026,10231,7523,7778,9026,10231,19139,23447,18430,22119,-131,-219,-17,-0.513725,-0.858824,-0.066667,1,255,100,2026-05-22 02:37:47.751000+00:00,2.251,2.7666666666666666,2.251,8639.5,20783.75,0.0,0.0,1.0029638714779312,0.00042195551032442324
2026-05-22T02:37:47.751+00:00,1779417467751731000,85,R,7524,7779,9025,10232,7524,7779,9025,10232,19144,23448,18434,22123,-131,-220,-16,-0.513725,-0.862745,-0.062745,1,255,200,2026-05-22 02:37:47.751000+00:00,2.251,2.8,2.251,8640.0,20787.25,0.0,0.0,1.0060711931444017,0.003529277176794965
2026-05-22T02:37:47.902+00:00,1779417467902647000,86,R,7522,7780,9025,10233,7522,7780,9025,10233,19147,23452,18433,22123,-131,-220,-16,-0.513725,-0.862745,-0.062745,1,255,300,2026-05-22 02:37:47.902000+00:00,2.402,2.8333333333333335,2.402,8640.0,20788.75,0.0,0.004810525429640052,1.0060711931444017,0.00372892533464797
2026-05-22T02:37:47.902+00:00,1779417467902679000,87,R,7525,7781,9025,10233,7525,7781,9025,10233,19143,23450,18431,22128,-131,-222,-16,-0.513725,-0.870588,-0.062745,1,255,400,2026-05-22 02:37:47.902000+00:00,2.402,2.8666666666666667,2.402,8641.0,20788.0,0.0,0.001202631357410013,1.012804905395901,0.010462637586147183
2026-05-22T02:37:47.902+00:00,1779417467902695000,88,R,7527,7784,9031,10240,7527,7784,9031,10240,19145,23453,18437,22127,-130,-222,-16,-0.509804,-0.870588,-0.062745,1,255,500,2026-05-22 02:37:47.902000+00:00,2.402,2.9,2.402,8645.5,20790.5,0.017353077279037482,0.013228944931510144,1.0108217049435573,0.009193149763045083
2026-05-22T02:37:47.902+00:00,1779417467902709000,89,R,7527,7783,9030,10236,7527,7783,9030,10236,19144,23454,18438,22132,-129,-221,-15,-0.505882,-0.866667,-0.058824,1,255,600,2026-05-22 02:37:47.902000+00:00,2.402,2.933333333333333,2.402,8644.0,20792.0,-0.008675785881604442,0.020444733075970223,1.005230595330743,0.003602040150230801
2026-05-22T02:37:47.902+00:00,1779417467902722000,90,R,7529,7783,9030,10237,7529,7783,9030,10237,19150,23456,18440,22133,-129,-222,-15,-0.505882,-0.870588,-0.058824,1,255,700,2026-05-22 02:37:47.902000+00:00,2.402,2.966666666666667,2.402,8644.75,20794.75,-0.008675033254294142,0.03367367800748037,1.0086130708274605,0.00706852891482046
2026-05-22T02:37:47.902+00:00,1779417467902735000,91,R,7529,7783,9033,10238,7529,7783,9033,10238,19149,23456,18440,22130,-129,-220,-14,-0.505882,-0.862745,-0.054902,1,255,800,2026-05-22 02:37:47.902000+00:00,2.402,3.0,2.402,8645.75,20793.75,0.0,0.028863152577840313,1.0016285551805122,8.401326787210728e-05
2026-05-22T02:37:48.053+00:00,1779417468053310000,92,R,7531,7785,9033,10240,7531,7785,9033,10240,19151,23461,18442,22136,-128,-220,-14,-0.501961,-0.862745,-0.054902,1,255,900,2026-05-22 02:37:48.053000+00:00,2.553,3.033333333333333,2.553,8647.25,20797.5,0.0,0.04690262293899051,0.999653945198037,-0.0019746099824752283
2026-05-22T02:37:48.053+00:00,1779417468053479000,93,R,7530,7787,9031,10242,7530,7787,9031,10242,19148,23459,18443,22140,-123,-222,-15,-0.482353,-0.870588,-0.058824,1,255,a00,2026-05-22 02:37:48.053000+00:00,2.553,3.066666666666667,2.553,8647.5,20797.5,0.0,0.04690262293899051,0.9970196313659024,-0.004524910546737648
2026-05-22T02:37:48.053+00:00,1779417468053559000,94,R,7529,7789,9033,10244,7529,7789,9033,10244,19152,23460,18441,22137,-124,-220,-15,-0.486275,-0.862745,-0.058824,1,255,b00,2026-05-22 02:37:48.053000+00:00,2.553,3.1,2.553,8648.75,20797.5,0.0,0.04690262293899051,0.9920950426375489,-0.008988752063973648
2026-05-22T02:37:48.053+00:00,1779417468053625000,95,R,7530,7788,9037,10245,7530,7788,9037,10245,19151,23462,18442,22139,-124,-220,-16,-0.486275,-0.862745,-0.062745,1,255,c00,2026-05-22 02:37:48.053000+00:00,2.553,3.1333333333333333,2.553,8650.0,20798.5,0.0,0.051713148368630564,0.9923352486307235,-0.008748546070799001
2026-05-22T02:37:48.053+00:00,1779417468053688000,96,R,7533,7789,9036,10247,7533,7789,9036,10247,19154,23463,18445,22138,-124,-220,-15,-0.486275,-0.862745,-0.058824,1,255,d00,2026-05-22 02:37:48.053000+00:00,2.553,3.1666666666666665,2.553,8651.25,20800.0,0.0,0.05892893651309064,0.9920950426375489,-0.008988752063973648
2026-05-22T02:37:48.202+00:00,1779417468202169000,97,R,7535,7787,9039,10248,7535,7787,9039,10248,19158,23467,18451,22145,-126,-220,-16,-0.494118,-0.862745,-0.062745,1,255,e00,2026-05-22 02:37:48.202000+00:00,2.702,3.2,2.702,8652.25,20805.25,0.0,0.08418419501870092,0.9962020216672921,-0.004674341731304765
2026-05-22T02:37:48.202+00:00,1779417468202323000,98,R,7532,7790,9040,10249,7532,7790,9040,10249,19157,23467,18442,22142,-128,-220,-15,-0.501961,-0.862745,-0.058824,1,255,f00,2026-05-22 02:37:48.202000+00:00,2.702,3.2333333333333334,2.702,8652.75,20802.0,0.0,0.06854998737237075,0.9998770141982463,-0.0009993492003506077
2026-05-22T02:37:48.202+00:00,1779417468202397000,99,R,7536,7791,9039,10250,7536,7791,9039,10250,19154,23471,18449,22147,-128,-219,-14,-0.501961,-0.858824,-0.054902,1,255,000,2026-05-22 02:37:48.202000+00:00,2.702,3.2666666666666666,2.702,8654.0,20805.25,0.0,0.08418419501870092,0.9962719197593597,-0.004604443639237177
2026-05-22T02:37:48.202+00:00,1779417468202461000,100,R,7542,7789,9050,10252,7542,7789,9050,10252,19158,23473,18451,22148,-129,-218,-12,-0.505882,-0.854902,-0.047059,1,255,100,2026-05-22 02:37:48.202000+00:00,2.702,3.3,2.702,8658.25,20807.5,0.03177170585177055,0.09500787723539103,0.994479048049279,-0.006604746652243532
2026-05-22T02:37:48.202+00:00,1779417468202525000,101,R,7538,7796,9042,10250,7538,7796,9042,10250,19158,23472,18450,22148,-129,-219,-13,-0.505882,-0.858824,-0.05098,1,255,200,2026-05-22 02:37:48.202000+00:00,2.702,3.3333333333333335,2.702,8656.5,20807.0,0.00577634011090573,0.09139888397152203,0.9980452000285358,-0.0030385946729867275
2026-05-22T02:37:48.352+00:00,1779417468352315000,102,R,7538,7795,9043,10256,7538,7795,9043,10256,19157,23475,18450,22148,-130,-220,-13,-0.509804,-0.862745,-0.05098,1,255,300,2026-05-22 02:37:48.352000+00:00,2.852,3.3666666666666667,2.852,8658.0,20807.5,0.02310536044362292,0.09019301304792256,1.0034081990102532,0.002101653847384588
2026-05-22T02:37:48.352+00:00,1779417468352442000,103,R,7540,7796,9044,10256,7540,7796,9044,10256,19161,23472,18455,22153,-131,-220,-13,-0.513725,-0.862745,-0.05098,1,255,400,2026-05-22 02:37:48.352000+00:00,2.852,3.4,2.852,8659.0,20810.25,0.03176895306859206,0.10221751888017702,1.005406022982755,0.004099477819886399
2026-05-22T02:37:48.352+00:00,1779417468352521000,104,R,7539,7796,9045,10258,7539,7796,9045,10258,19164,23478,18458,22153,-129,-219,-14,-0.505882,-0.858824,-0.054902,1,255,500,2026-05-22 02:37:48.352000+00:00,2.852,3.433333333333333,2.852,8659.5,20813.25,0.03754512635379061,0.10942497775426277,0.9982532196311715,-0.0030533255316971264
2026-05-22T02:37:48.352+00:00,1779417468352589000,105,R,7544,7811,9051,10268,7544,7811,9051,10268,19148,23458,18452,22142,-130,-219,-14,-0.509804,-0.858824,-0.054902,1,255,b1970,2026-05-22 02:37:48.352000+00:00,2.852,3.466666666666667,2.852,8668.5,20800.0,0.1386241552590539,0.038476337052712584,1.000246475123007,-0.001060070039861749
2026-05-22T02:37:48.352+00:00,1779417468352652000,106,R,7547,7809,9052,10266,7547,7809,9052,10266,19151,23463,18455,22141,-130,-219,-14,-0.509804,-0.858824,-0.054902,1,255,c1970,2026-05-22 02:37:48.352000+00:00,2.852,3.5,2.852,8668.5,20802.5,0.12705746462604678,0.04207995190862639,1.000246475123007,-0.001060070039861749
2026-05-22T02:37:48.352+00:00,1779417468352716000,107,R,7545,7813,9055,10272,7545,7813,9055,10272,19151,23463,18456,22143,-131,-220,-15,-0.513725,-0.862745,-0.058824,1,255,d1970,2026-05-22 02:37:48.352000+00:00,2.852,3.533333333333333,2.852,8671.25,20803.25,0.15592965839854467,0.040875701799733107,1.005834267474518,0.004750472772995451
2026-05-22T02:37:48.502+00:00,1779417468502711000,108,R,7547,7816,9058,10273,7547,7816,9058,10273,19152,23464,18455,22144,-130,-220,-15,-0.509804,-0.862745,-0.058824,1,255,e1970,2026-05-22 02:37:48.502000+00:00,3.002,3.566666666666667,3.002,8673.5,20803.75,0.17902517902517903,0.04087471898630697,1.0038372957890138,0.0027535010874912835
2026-05-22T02:37:48.502+00:00,1779417468502761000,109,R,7547,7816,9057,10274,7547,7816,9057,10274,19152,23466,18457,22143,-129,-221,-15,-0.505882,-0.866667,-0.058824,1,255,f1970,2026-05-22 02:37:48.502000+00:00,3.002,3.6,3.002,8673.5,20804.5,0.17613259030404527,0.04327859392657065,1.005230595330743,0.0041468006292204596
2026-05-22T02:37:48.502+00:00,1779417468502777000,110,R,7555,7822,9067,10285,7555,7822,9067,10285,19165,23477,18461,22154,-126,-222,-14,-0.494118,-0.870588,-0.054902,1,255,72040,2026-05-22 02:37:48.502000+00:00,3.002,3.6333333333333333,3.002,8682.25,20814.25,0.2771922732653827,0.08896048471442482,1.0025419159676068,0.0014581212660842446
2026-05-22T02:37:48.502+00:00,1779417468502791000,111,R,7556,7825,9061,10288,7556,7825,9061,10288,19165,23477,18464,22158,-127,-221,-14,-0.498039,-0.866667,-0.054902,1,255,82040,2026-05-22 02:37:48.502000+00:00,3.002,3.6666666666666665,3.002,8682.5,20816.0,0.2771842697926893,0.09617234083477592,1.0010837947015225,0.0
2026-05-22T02:37:48.502+00:00,1779417468502804000,112,R,7555,7822,9065,10284,7555,7822,9065,10284,19167,23479,18464,22159,-127,-221,-14,-0.498039,-0.866667,-0.054902,1,255,92040,2026-05-22 02:37:48.502000+00:00,3.002,3.7,3.002,8681.5,20817.25,0.2627400028872528,0.094963336939536,1.0010837947015225,0.0
2026-05-22T02:37:48.651+00:00,1779417468651486000,113,R,7555,7819,9064,10280,7555,7819,9064,10280,19159,23475,18461,22160,-128,-223,-14,-0.501961,-0.87451,-0.054902,1,255,a2040,2026-05-22 02:37:48.651000+00:00,3.151,3.7333333333333334,3.151,8679.5,20813.75,0.23674789236632407,0.07813439115278278,1.0098251409154955,0.008741346213972934
2026-05-22T02:37:48.651+00:00,1779417468651548000,114,R,7555,7818,9063,10277,7555,7818,9063,10277,19163,23475,18461,22153,-128,-222,-14,-0.501961,-0.870588,-0.054902,1,255,b2040,2026-05-22 02:37:48.651000+00:00,3.151,3.7666666666666666,3.151,8678.25,20813.0,0.2165252035336913,0.0745281884841928,1.00643059416385,0.005346799462327523
2026-05-22T02:37:48.651+00:00,1779417468651581000,115,R,7541,7805,9045,10255,7541,7805,9045,10255,19146,23450,18439,22121,-129,-219,-14,-0.505882,-0.858824,-0.054902,1,255,22100,2026-05-22 02:37:48.651000+00:00,3.151,3.8,3.151,8661.5,20789.0,0.011546677443565615,-0.04567637089213165,0.9982532196311715,-0.0028305750703510046
2026-05-22T02:37:48.651+00:00,1779417468651608000,116,R,7539,7804,9045,10256,7539,7804,9045,10256,19141,23448,18439,22123,-130,-219,-14,-0.509804,-0.858824,-0.054902,1,255,32100,2026-05-22 02:37:48.651000+00:00,3.151,3.8333333333333335,3.151,8661.0,20787.75,0.0,-0.05168641969372791,1.000246475123007,-0.0008373195785156273
2026-05-22T02:37:48.651+00:00,1779417468651636000,117,R,7540,7800,9048,10254,7540,7800,9048,10254,19143,23447,18438,22123,-130,-219,-15,-0.509804,-0.858824,-0.058824,1,255,42100,2026-05-22 02:37:48.651000+00:00,3.151,3.8666666666666667,3.151,8660.5,20787.75,-0.005773005426625101,-0.05168641969372791,1.0004694120101825,-0.0004069513884144005
2026-05-22T02:37:48.801+00:00,1779417468802037000,118,R,7538,7802,9044,10250,7538,7802,9044,10250,19141,23444,18438,22120,-129,-219,-16,-0.505882,-0.858824,-0.062745,1,255,52100,2026-05-22 02:37:48.801000+00:00,3.301,3.9,3.301,8658.5,20785.75,-0.028865027133125505,-0.061302497776281946,0.9987152727003829,-0.0017541393097996183
2026-05-22T02:37:48.802+00:00,1779417468802192000,119,R,7536,7804,9042,10251,7536,7804,9042,10251,19140,23440,18437,22118,-129,-220,-15,-0.505882,-0.862745,-0.058824,1,255,62100,2026-05-22 02:37:48.802000+00:00,3.302,3.933333333333333,3.302,8658.25,20783.75,-0.03175152984643806,-0.07091857585883597,1.0018511845204356,0.0014050741851512338
2026-05-22T02:37:48.802+00:00,1779417468802270000,120,R,7533,7802,9040,10250,7533,7802,9040,10250,19133,23434,18436,22113,-128,-220,-15,-0.501961,-0.862745,-0.058824,1,255,f2180,2026-05-22 02:37:48.802000+00:00,3.302,3.966666666666667,3.302,8656.25,20779.0,-0.05484355155293846,-0.09375676130490179,0.9998770141982463,-0.00036946092476064507
2026-05-22T02:37:48.802+00:00,1779417468802337000,121,R,7534,7802,9037,10249,7534,7802,9037,10249,19134,23432,18438,22111,-127,-222,-15,-0.498039,-0.870588,-0.058824,1,255,02180,2026-05-22 02:37:48.802000+00:00,3.302,4.0,3.302,8655.5,20778.75,-0.06350305969287612,-0.09495877106522105,1.0047022316293521,0.004455756506345221
2026-05-22T02:37:48.802+00:00,1779417468802401000,122,R,7535,7802,9038,10249,7535,7802,9038,10249,19132,23435,18433,22113,-127,-222,-14,-0.498039,-0.870588,-0.054902,1,255,12180,2026-05-22 02:37:48.802000+00:00,3.302,4.033333333333333,3.302,8656.0,20778.25,-0.05773005426625101,-0.09736279058585956,1.0044802341853225,0.004233759062315601
2026-05-22T02:37:48.951+00:00,1779417468951966000,123,R,7534,7802,9038,10250,7534,7802,9038,10250,19132,23432,18433,22110,-127,-220,-14,-0.498039,-0.862745,-0.054902,1,255,22180,2026-05-22 02:37:48.951000+00:00,3.451,4.066666666666666,3.451,8656.0,20776.75,-0.05773005426625101,-0.10457484914777508,0.997690337805273,-0.002556137317733853
2026-05-22T02:37:48.952+00:00,1779417468952121000,124,R,7534,7800,9039,10252,7534,7800,9039,10252,19132,23434,18433,22113,-127,-221,-13,-0.498039,-0.866667,-0.05098,1,255,32180,2026-05-22 02:37:48.952000+00:00,3.452,4.1,3.452,8656.25,20778.0,-0.05484355155293846,-0.09856480034617882,1.0008763633985969,0.00043025306331245794
2026-05-22T02:37:48.952+00:00,1779417468952196000,125,R,7535,7803,9042,10250,7535,7803,9042,10250,19134,23431,18438,22113,-128,-219,-13,-0.501961,-0.858824,-0.05098,1,255,42180,2026-05-22 02:37:48.952000+00:00,3.452,4.133333333333334,3.452,8657.5,20779.0,-0.04041103798637571,-0.09375676130490179,0.996063486378755,-0.004405925631427499
2026-05-22T02:37:48.952+00:00,1779417468952261000,126,R,7537,7803,9041,10254,7537,7803,9041,10254,19133,23436,18439,22119,-126,-221,-15,-0.494118,-0.866667,-0.058824,1,255,b2240,2026-05-22 02:37:48.952000+00:00,3.452,4.166666666666667,3.452,8658.75,20781.75,-0.02886419396738346,-0.06852279284477784,0.9993620714180621,-0.0015142919805347654
2026-05-22T02:37:48.952+00:00,1779417468952325000,127,R,7533,7804,9039,10255,7533,7804,9039,10255,19136,23436,18439,22115,-126,-221,-16,-0.494118,-0.866667,-0.062745,1,255,c2240,2026-05-22 02:37:48.952000+00:00,3.452,4.2,3.452,8657.75,20781.5,-0.04329504127460602,-0.06972494710521254,0.9996005311313114,-0.001483263570211113
2026-05-22T02:37:49.101+00:00,1779417469101815000,128,R,7540,7804,9044,10258,7540,7804,9044,10258,19134,23436,18437,22118,-126,-222,-15,-0.494118,-0.870588,-0.058824,1,255,d2240,2026-05-22 02:37:49.101000+00:00,3.601,4.233333333333333,3.601,8661.5,20781.25,0.0,-0.07092710136564724,1.0027643425271962,0.0016805478256736173
2026-05-22T02:37:49.101+00:00,1779417469101935000,129,R,7539,7808,9043,10254,7539,7808,9043,10254,19135,23437,18439,22119,-126,-223,-16,-0.494118,-0.87451,-0.062745,1,255,e2240,2026-05-22 02:37:49.101000+00:00,3.601,4.266666666666667,3.601,8661.0,20782.5,-0.020201437187959942,-0.06491633006347375,1.0064081046220763,0.00510155945920765
2026-05-22T02:37:49.102+00:00,1779417469102015000,130,R,7540,7807,9046,10260,7540,7807,9046,10260,19141,23439,18442,22125,-128,-223,-15,-0.501961,-0.87451,-0.058824,1,255,f2240,2026-05-22 02:37:49.102000+00:00,3.602,4.3,3.602,8663.25,20786.75,0.0028858363153641924,-0.04447970763608386,1.0100459636061125,0.008555126499252275
2026-05-22T02:37:49.102+00:00,1779417469102081000,131,R,7546,7816,9053,10267,7546,7816,9053,10267,19147,23450,18451,22133,-129,-220,-14,-0.505882,-0.862745,-0.054902,1,255,72310,2026-05-22 02:37:49.102000+00:00,3.602,4.333333333333333,3.602,8670.5,20795.25,0.08368683808039708,-0.003606462781304097,1.0016285551805122,0.0
2026-05-22T02:37:49.102+00:00,1779417469102144000,132,R,7545,7814,9052,10269,7545,7814,9052,10269,19150,23449,18451,22133,-127,-221,-15,-0.498039,-0.866667,-0.058824,1,255,82310,2026-05-22 02:37:49.102000+00:00,3.602,4.366666666666666,3.602,8670.0,20795.75,0.017304031839418584,-0.001202154260434699,1.0013065451628687,-0.0005446393575669894
2026-05-22T02:37:49.102+00:00,1779417469102206000,133,R,7546,7813,9054,10272,7546,7813,9054,10272,19148,23450,18450,22134,-127,-220,-13,-0.498039,-0.862745,-0.05098,1,255,92310,2026-05-22 02:37:49.102000+00:00,3.602,4.4,3.602,8671.25,20795.5,0.031724058372267404,-0.002404308520869398,0.9974822008166361,-0.004146354363876115
2026-05-22T02:37:49.252+00:00,1779417469252594000,134,R,7549,7815,9055,10270,7549,7815,9055,10270,19148,23451,18451,22134,-126,-220,-14,-0.494118,-0.862745,-0.054902,1,255,a2310,2026-05-22 02:37:49.252000+00:00,3.752,4.433333333333334,3.752,8672.25,20796.0,0.025951557093425604,0.0,0.9957388023738957,-0.005752034732964595
2026-05-22T02:37:49.252+00:00,1779417469252745000,135,R,7549,7816,9054,10273,7549,7816,9054,10273,19150,23455,18454,22137,-127,-219,-13,-0.498039,-0.858824,-0.05098,1,255,b2310,2026-05-22 02:37:49.252000+00:00,3.752,4.466666666666667,3.752,8673.0,20799.0,0.028833400611268094,0.014425851125216388,0.9940927868649888,-0.007398050241871457
2026-05-22T02:37:49.252+00:00,1779417469252821000,136,R,7556,7820,9060,10279,7556,7820,9060,10279,19156,23459,18455,22145,-120,-223,-16,-0.470588,-0.87451,-0.062745,1,255,12360,2026-05-22 02:37:49.252000+00:00,3.752,4.5,3.752,8678.75,20803.75,0.08649272019605017,0.03726678207347567,0.9950667017185331,-0.006424135388327201
2026-05-22T02:37:49.252+00:00,1779417469252888000,137,R,7555,7821,9061,10280,7555,7821,9061,10280,19158,23459,18454,22147,-122,-223,-16,-0.478431,-0.87451,-0.062745,1,255,22360,2026-05-22 02:37:49.252000+00:00,3.752,4.533333333333333,3.752,8679.25,20804.5,0.09225890154245352,0.040873244854779764,0.9987997281167031,-0.0028288270638090474
2026-05-22T02:37:49.252+00:00,1779417469252952000,138,R,7554,7820,9062,10281,7554,7820,9062,10281,19165,23464,18455,22147,-123,-223,-15,-0.482353,-0.87451,-0.058824,1,255,32360,2026-05-22 02:37:49.252000+00:00,3.752,4.566666666666666,3.752,8679.25,20807.75,0.08071723024589927,0.05650125024043085,1.0004461103352844,-0.0011824448452277814
2026-05-22T02:37:49.402+00:00,1779417469402406000,139,R,7559,7821,9063,10282,7559,7821,9063,10282,19166,23464,18458,22150,-126,-223,-15,-0.494118,-0.87451,-0.058824,1,255,42360,2026-05-22 02:37:49.402000+00:00,3.902,4.6,3.902,8681.25,20809.5,0.10377929603044193,0.06491633006347375,1.0061712582855864,0.004542703105074208
2026-05-22T02:37:49.402+00:00,1779417469402509000,140,R,7559,7824,9062,10285,7559,7824,9062,10285,19166,23462,18457,22145,-127,-222,-16,-0.498039,-0.870588,-0.062745,1,255,52360,2026-05-22 02:37:49.402000+00:00,3.902,4.633333333333334,3.902,8682.5,20807.5,0.11819308714578108,0.05529909597999615,1.004939424189339,0.0033108690088268222
2026-05-22T02:37:49.402+00:00,1779417469402539000,141,R,7567,7824,9068,10288,7567,7824,9068,10288,19176,23471,18456,22155,-123,-223,-19,-0.482353,-0.87451,-0.07451,1,255,e2440,2026-05-22 02:37:49.402000+00:00,3.902,4.666666666666667,3.902,8686.75,20814.5,0.1671999769379342,0.08895941527216772,1.0014908371068603,-0.0001377180736519268
2026-05-22T02:37:49.402+00:00,1779417469402566000,142,R,7564,7823,9068,10285,7564,7823,9068,10285,19174,23470,18456,22150,-125,-222,-19,-0.490196,-0.870588,-0.07451,1,255,f2440,2026-05-22 02:37:49.402000+00:00,3.902,4.7,3.902,8685.0,20812.5,0.14702066937645938,0.07934218118869013,1.0018818913724312,3.0706851995576656e-05
2026-05-22T02:37:49.402+00:00,1779417469402592000,143,R,7561,7816,9064,10281,7561,7816,9064,10281,19171,23469,18453,22144,-127,-222,-19,-0.498039,-0.870588,-0.07451,1,255,02440,2026-05-22 02:37:49.402000+00:00,3.902,4.733333333333333,3.902,8680.5,20809.25,0.09513102136123844,0.06371417580303905,1.0057425373150926,0.0038606459426613338
2026-05-22T02:37:49.552+00:00,1779417469552535000,144,R,7559,7818,9062,10277,7559,7818,9062,10277,19163,23466,18447,22139,-127,-221,-20,-0.498039,-0.866667,-0.078431,1,255,12440,2026-05-22 02:37:49.552000+00:00,4.052,4.766666666666667,4.052,8679.0,20803.75,0.07783447202283145,0.03726678207347567,1.0026494682445106,0.0007982837240749774
2026-05-22T02:37:49.552+00:00,1779417469552684000,145,R,7555,7813,9059,10269,7555,7813,9059,10269,19162,23460,18447,22134,-127,-222,-20,-0.498039,-0.870588,-0.078431,1,255,22440,2026-05-22 02:37:49.552000+00:00,4.052,4.8,4.052,8674.0,20800.75,0.02017930756147482,0.02284093094825928,1.0060406219561913,0.004250834390955527
2026-05-22T02:37:49.552+00:00,1779417469552757000,146,R,7546,7804,9049,10253,7546,7804,9049,10253,19140,23438,18426,22108,-127,-220,-22,-0.498039,-0.862745,-0.086275,1,255,a2510,2026-05-22 02:37:49.552000+00:00,4.052,4.833333333333333,4.052,8663.0,20778.0,-0.11530035743110803,-0.10096639261502957,0.9999075738142,-0.0018822137510356995
2026-05-22T02:37:49.552+00:00,1779417469552824000,147,R,7546,7799,9046,10249,7546,7799,9046,10249,19142,23436,18423,22108,-126,-219,-23,-0.494118,-0.858824,-0.090196,1,255,b2510,2026-05-22 02:37:49.552000+00:00,4.052,4.866666666666666,4.052,8660.0,20777.25,-0.16140189070786257,-0.11297669555184309,0.9949203884311548,-0.006869399134080911
2026-05-22T02:37:49.552+00:00,1779417469552888000,148,R,7543,7796,9044,10245,7543,7796,9044,10245,19141,23438,18421,22104,-125,-220,-24,-0.490196,-0.862745,-0.094118,1,255,c2510,2026-05-22 02:37:49.552000+00:00,4.052,4.9,4.052,8657.0,20776.0,-0.25061212732248306,-0.1189860942514092,0.9967342932622515,-0.0050554943029842425
2026-05-22T02:37:49.702+00:00,1779417469702737000,149,R,7543,7794,9043,10247,7543,7794,9043,10247,19138,23431,18421,22100,-123,-219,-24,-0.482353,-0.858824,-0.094118,1,255,d2510,2026-05-22 02:37:49.702000+00:00,4.202,4.933333333333334,4.202,8656.75,20772.5,-0.25636594077658714,-0.13581241061019433,0.9894954661386782,-0.012355718381757419
2026-05-22T02:37:49.702+00:00,1779417469702899000,150,R,7543,7798,9043,10245,7543,7798,9043,10245,19136,23430,18417,22098,-123,-220,-25,-0.482353,-0.862745,-0.098039,1,255,e2510,2026-05-22 02:37:49.702000+00:00,4.202,4.966666666666667,4.202,8657.25,20770.25,-0.2534781231097157,-0.14662932826941336,0.993279918832048,-0.008509868733187709
2026-05-22T02:37:49.703+00:00,1779417469703261000,151,R,7544,7795,9041,10243,7544,7795,9041,10243,19139,23427,18416,22097,-119,-219,-24,-0.466667,-0.858824,-0.094118,1,255,f2510,2026-05-22 02:37:49.703000+00:00,4.203,5.0,4.203,8655.75,20769.75,-0.27076072241265087,-0.14903308774923982,0.9819444738828158,-0.019937417489615417
2026-05-22T02:37:49.703+00:00,1779417469703338000,152,R,7555,7802,9026,10252,7555,7802,9026,10252,19175,23393,18418,22105,-130,-222,-24,-0.509804,-0.870588,-0.094118,1,255,62570,2026-05-22 02:37:49.703000+00:00,4.203,5.033333333333333,4.203,8658.75,20772.75,-0.23619552380678055,-0.13461053087028113,1.0132530691214312,0.011371177748999983
2026-05-22T02:37:49.703+00:00,1779417469703404000,153,R,7557,7797,9029,10253,7557,7797,9029,10253,19176,23389,18425,22108,-128,-223,-26,-0.501961,-0.87451,-0.101961,1,255,72570,2026-05-22 02:37:49.703000+00:00,4.203,5.066666666666666,4.203,8659.0,20774.5,-0.23331509058962469,-0.12619737269088854,1.0134735473321443,0.01159165595971312
2026-05-22T02:37:50.003+00:00,1779417470003250000,154,R,7560,7801,9028,10255,7560,7801,9028,10255,19180,23385,18421,22108,-126,-222,-29,-0.494118,-0.870588,-0.113725,1,255,82570,2026-05-22 02:37:50.003000+00:00,4.503,5.1,4.503,8661.0,20773.5,-0.2102716248523778,-0.13100489165054144,1.007476768612061,0.004827300367550302
2026-05-22T02:37:50.003+00:00,1779417470003405000,155,R,7560,7801,9030,10254,7560,7801,9030,10254,19187,23384,18420,22109,-126,-222,-28,-0.494118,-0.870588,-0.109804,1,255,92570,2026-05-22 02:37:50.003000+00:00,4.503,5.133333333333334,4.503,8661.25,20775.0,-0.20739119163522193,-0.1237936132110621,1.007041698284634,0.004277355757437817
2026-05-22T02:37:50.003+00:00,1779417470003478000,156,R,7564,7801,9032,10254,7564,7801,9032,10254,19187,23385,18423,22110,-125,-222,-31,-0.490196,-0.870588,-0.121569,1,255,a2570,2026-05-22 02:37:50.003000+00:00,4.503,5.166666666666667,4.503,8662.75,20776.25,-0.19010859233228677,-0.11778421451149598,1.006476331525486,0.00371198899828995
2026-05-22T02:37:50.003+00:00,1779417470003544000,157,R,7636,7829,9092,10287,7636,7829,9092,10287,19303,23458,18455,22142,-132,-218,-32,-0.517647,-0.854902,-0.12549,1,255,22640,2026-05-22 02:37:50.003000+00:00,4.503,5.2,4.503,8711.0,20839.5,0.3658150185787942,0.18629135968654975,1.0072554722179474,0.004491129690751272
2026-05-22T02:37:50.003+00:00,1779417470003608000,158,R,7652,7832,9100,10297,7652,7832,9100,10297,19338,23466,18461,22157,-133,-221,-32,-0.521569,-0.866667,-0.12549,1,255,32640,2026-05-22 02:37:50.003000+00:00,4.503,5.233333333333333,4.503,8720.25,20855.5,0.4694970908462469,0.26321166304099614,1.0192613260346925,0.015722374666585326
2026-05-22T02:37:50.003+00:00,1779417470003671000,159,R,7672,7837,9113,10305,7672,7837,9113,10305,19365,23488,18463,22169,-132,-219,-32,-0.517647,-0.858824,-0.12549,1,255,42640,2026-05-22 02:37:50.003000+00:00,4.503,5.266666666666667,4.503,8731.75,20871.25,0.5933008841911235,0.33893008665552926,1.0105863741833252,0.007047422815217974
2026-05-22T02:37:50.151+00:00,1779417470151880000,160,R,7685,7837,9120,10312,7685,7837,9120,10312,19389,23494,18462,22178,-130,-219,-32,-0.509804,-0.858824,-0.12549,1,255,52640,2026-05-22 02:37:50.151000+00:00,4.651,5.3,4.651,8738.5,20880.75,0.668164276251368,0.38460151677223176,1.006591536568831,0.003052585200723712
2026-05-22T02:37:50.152+00:00,1779417470152032000,161,R,7693,7838,9126,10316,7693,7838,9126,10316,19409,23500,18465,22189,-129,-219,-32,-0.505882,-0.858824,-0.12549,1,255,62640,2026-05-22 02:37:50.152000+00:00,4.652,5.333333333333333,4.652,8743.25,20890.75,0.7199838723612592,0.43267670636876077,1.004610870436907,0.0019614021923963776
2026-05-22T02:37:50.152+00:00,1779417470152106000,162,R,7635,7851,9106,10305,7635,7851,9106,10305,19312,23485,18494,22155,-126,-221,-30,-0.494118,-0.866667,-0.117647,1,255,e2710,2026-05-22 02:37:50.152000+00:00,4.652,5.366666666666666,4.652,8724.25,20861.5,0.4953203743700504,0.2920567767989135,1.0045422357581586,0.001892767513647975
2026-05-22T02:37:50.152+00:00,1779417470152173000,163,R,7620,7853,9099,10301,7620,7853,9099,10301,19282,23483,18493,22154,-128,-215,-32,-0.501961,-0.843137,-0.12549,1,255,f2710,2026-05-22 02:37:50.152000+00:00,4.652,5.4,4.652,8718.25,20853.0,0.41753052292098597,0.2511928656418639,0.9892383870382306,-0.014100950407979429
2026-05-22T02:37:50.152+00:00,1779417470152236000,164,R,7606,7851,9093,10300,7606,7851,9093,10300,19259,23478,18496,22149,-129,-215,-31,-0.505882,-0.843137,-0.121569,1,255,02710,2026-05-22 02:37:50.152000+00:00,4.652,5.433333333333334,4.652,8712.5,20845.5,0.34552260293694215,0.21513647344446715,0.9907449825530281,-0.012594354893181947
2026-05-22T02:37:50.301+00:00,1779417470301557000,165,R,7597,7852,9088,10299,7597,7852,9088,10299,19237,23473,18492,22143,-128,-215,-29,-0.501961,-0.843137,-0.113725,1,255,12710,2026-05-22 02:37:50.301000+00:00,4.801,5.466666666666667,4.801,8709.0,20836.25,0.29366039039557784,0.16585143076904588,0.9878148722888312,-0.01552446515737882
2026-05-22T02:37:50.301+00:00,1779417470301606000,166,R,7587,7849,9085,10295,7587,7849,9085,10295,19217,23472,18492,22144,-121,-221,-27,-0.47451,-0.866667,-0.105882,1,255,22710,2026-05-22 02:37:50.301000+00:00,4.801,5.5,4.801,8704.0,20831.25,0.23319418454008925,0.14181499152715515,0.9937215036985966,-0.009617833747613491
2026-05-22T02:37:50.301+00:00,1779417470301622000,167,R,7564,7833,9084,10304,7564,7833,9084,10304,19170,23484,18463,22162,-134,-216,-32,-0.52549,-0.847059,-0.12549,1,255,92770,2026-05-22 02:37:50.301000+00:00,4.801,5.533333333333333,4.801,8696.25,20819.75,0.14394702749388225,0.08653118127080654,1.0046872297789993,0.0013478923327892023
2026-05-22T02:37:50.301+00:00,1779417470301635000,168,R,7566,7831,9090,10306,7566,7831,9090,10306,19171,23487,18458,22161,-132,-218,-31,-0.517647,-0.854902,-0.121569,1,255,a2770,2026-05-22 02:37:50.301000+00:00,4.801,5.566666666666666,4.801,8698.25,20819.25,0.15832805573147563,0.08412753734661747,1.0067744871489346,0.003235535780827359
2026-05-22T02:37:50.301+00:00,1779417470301648000,169,R,7572,7831,9088,10310,7572,7831,9088,10310,19178,23491,18457,22164,-131,-220,-32,-0.513725,-0.862745,-0.12549,1,255,b2770,2026-05-22 02:37:50.301000+00:00,4.801,5.6,4.801,8700.25,20822.5,0.1755900978698906,0.09975122285384642,1.01192393525897,0.00838498389086273
2026-05-22T02:37:50.451+00:00,1779417470451436000,170,R,7576,7831,9089,10309,7576,7831,9089,10309,19183,23486,18454,22164,-126,-222,-30,-0.494118,-0.870588,-0.117647,1,255,c2770,2026-05-22 02:37:50.451000+00:00,4.951,5.633333333333334,4.951,8701.25,20821.75,0.1871042026482441,0.09614575696756282,1.0079270213051141,0.004587683858904068
2026-05-22T02:37:50.451+00:00,1779417470451496000,171,R,7582,7831,9092,10311,7582,7831,9092,10311,19191,23493,18453,22172,-126,-223,-30,-0.494118,-0.87451,-0.117647,1,255,d2770,2026-05-22 02:37:50.451000+00:00,4.951,5.666666666666667,4.951,8704.0,20827.25,0.21299867595417651,0.1225858401336426,1.0113165452186572,0.007977207772447148
2026-05-22T02:37:50.451+00:00,1779417470451529000,172,R,7593,7828,9095,10307,7593,7828,9095,10307,19211,23481,18449,22167,-128,-220,-28,-0.501961,-0.862745,-0.109804,0,79,62850,2026-05-22 02:37:50.451000+00:00,4.951,5.7,4.951,8705.75,20827.0,0.23314719935524725,0.12138401817154806,1.004166668916072,0.0008273314698619139
2026-05-22T02:37:50.451+00:00,1779417470451552000,173,R,7591,7828,9089,10307,7591,7828,9089,10307,19212,23479,18442,22161,-128,-221,-28,-0.501961,-0.866667,-0.109804,0,79,72850,2026-05-22 02:37:50.451000+00:00,4.951,5.733333333333333,4.951,8703.75,20823.5,0.15246533571140902,0.10455851070222458,1.0075383133290763,0.003999361960969061
2026-05-22T02:37:50.451+00:00,1779417470451573000,174,R,7587,7820,9088,10296,7587,7820,9088,10296,19205,23473,18442,22159,-127,-220,-27,-0.498039,-0.862745,-0.105882,0,79,82850,2026-05-22 02:37:50.451000+00:00,4.951,5.766666666666667,4.951,8697.75,20819.75,0.06327475624838218,0.08653118127080654,1.0017897875652357,-0.0017491638028714895
2026-05-22T02:37:50.601+00:00,1779417470601924000,175,R,7589,7821,9084,10295,7589,7821,9084,10295,19204,23470,18434,22150,-126,-219,-28,-0.494118,-0.858824,-0.109804,0,79,92850,2026-05-22 02:37:50.601000+00:00,5.101,5.8,5.101,8697.25,20814.5,0.05752250568034743,0.0612929200668213,0.996889251279198,-0.006649700088909194
2026-05-22T02:37:50.601+00:00,1779417470601971000,176,R,7586,7816,9081,10292,7586,7816,9081,10292,19201,23468,18432,22146,-126,-219,-27,-0.494118,-0.858824,-0.105882,0,79,a2850,2026-05-22 02:37:50.601000+00:00,5.101,5.833333333333333,5.101,8693.75,20811.75,0.014380212827149842,0.04807287848378141,0.9964648808783981,-0.006874456567811937
2026-05-22T02:37:50.601+00:00,1779417470601993000,177,R,7585,7815,9082,10287,7585,7815,9082,10287,19203,23466,18427,22144,-123,-218,-28,-0.482353,-0.854902,-0.109804,0,79,b2850,2026-05-22 02:37:50.601000+00:00,5.101,5.866666666666666,5.101,8692.25,20810.0,-0.0028760425654299686,0.03966012474911967,0.9877139082897436,-0.015825043078363632
2026-05-22T02:37:50.602+00:00,1779417470602013000,178,R,7578,7803,9077,10277,7578,7803,9077,10277,19187,23464,18409,22126,-128,-219,-25,-0.501961,-0.858824,-0.098039,0,79,12900,2026-05-22 02:37:50.602000+00:00,5.102,5.9,5.102,8683.75,20796.5,-0.1006614897900489,-0.025238261203985243,0.9995774877506997,-0.003961463617407568
2026-05-22T02:37:50.602+00:00,1779417470602032000,179,R,7575,7800,9075,10273,7575,7800,9075,10273,19187,23461,18406,22126,-130,-219,-25,-0.509804,-0.858824,-0.098039,0,79,22900,2026-05-22 02:37:50.602000+00:00,5.102,5.933333333333334,5.102,8680.75,20795.0,-0.1351740005752085,-0.03244919297655245,1.0035389513681072,0.0
2026-05-22T02:37:50.602+00:00,1779417470602048000,180,R,7576,7802,9079,10283,7576,7802,9079,10283,19184,23459,18406,22121,-130,-218,-25,-0.509804,-0.854902,-0.098039,0,79,32900,2026-05-22 02:37:50.602000+00:00,5.102,5.966666666666667,5.102,8685.0,20792.5,-0.08628127696289906,-0.044467412597497806,1.0001845797356608,-0.003354371632446451
2026-05-22T02:37:50.753+00:00,1779417470753353000,181,R,7571,7799,9074,10273,7571,7799,9074,10273,19186,23454,18400,22120,-130,-220,-24,-0.509804,-0.862745,-0.094118,0,79,42900,2026-05-22 02:37:50.753000+00:00,5.253,6.0,5.253,8679.25,20790.0,-0.15243025596778834,-0.05648563221844316,1.006522355124316,0.002983403756208869
2026-05-22T02:37:50.753+00:00,1779417470753538000,182,R,7573,7798,9073,10271,7573,7798,9073,10271,19180,23455,18403,22118,-130,-221,-24,-0.509804,-0.866667,-0.094118,0,79,52900,2026-05-22 02:37:50.753000+00:00,5.253,6.033333333333333,5.253,8678.75,20789.0,-0.15818234109864826,-0.0612929200668213,1.009886134784016,0.006049042137006744
2026-05-22T02:37:50.753+00:00,1779417470753614000,183,R,7571,7796,9072,10267,7571,7796,9072,10267,19182,23453,18403,22118,-129,-221,-23,-0.505882,-0.866667,-0.090196,0,79,c2960,2026-05-22 02:37:50.753000+00:00,5.253,6.066666666666666,5.253,8676.5,20789.0,-0.184066724187518,-0.0612929200668213,1.007553276620646,0.004014325252538864
2026-05-22T02:37:50.753+00:00,1779417470753682000,184,R,7571,7799,9072,10266,7571,7799,9072,10266,19177,23449,18404,22112,-129,-220,-22,-0.505882,-0.862745,-0.086275,0,79,d2960,2026-05-22 02:37:50.753000+00:00,5.253,6.1,5.253,8677.0,20785.5,-0.17831463905665804,-0.0781184275361448,1.0038370926470093,0.0002981412789020421
2026-05-22T02:37:50.753+00:00,1779417470753747000,185,R,7574,7800,9071,10268,7574,7800,9071,10268,19178,23451,18405,22115,-129,-220,-23,-0.505882,-0.862745,-0.090196,0,79,e2960,2026-05-22 02:37:50.753000+00:00,5.253,6.133333333333334,5.253,8678.25,20787.25,-0.16393442622950818,-0.06970567380148304,1.0041816824484502,0.0008423450022401191
2026-05-22T02:37:50.902+00:00,1779417470902392000,186,R,7575,7797,9078,10268,7575,7797,9078,10268,19176,23449,18402,22112,-128,-220,-24,-0.501961,-0.862745,-0.094118,0,79,f2960,2026-05-22 02:37:50.902000+00:00,5.402,6.166666666666667,5.402,8679.5,20784.75,-0.14955421340235836,-0.0817238934224284,1.0025726798940813,-0.000590805942599193
2026-05-22T02:37:50.902+00:00,1779417470902531000,187,R,7570,7800,9071,10268,7570,7800,9071,10268,19171,23447,18404,22110,-127,-219,-24,-0.498039,-0.858824,-0.094118,0,79,02960,2026-05-22 02:37:50.902000+00:00,5.402,6.2,5.402,8677.25,20783.0,-0.17543859649122806,-0.09013664715709015,0.997236033454969,-0.00592745238171144
2026-05-22T02:37:50.902+00:00,1779417470902615000,188,R,7571,7810,9072,10275,7571,7810,9072,10275,19172,23451,18421,22119,-129,-220,-25,-0.505882,-0.862745,-0.098039,0,79,a3050,2026-05-22 02:37:50.902000+00:00,5.402,6.233333333333333,5.402,8682.0,20790.75,-0.11792113664471224,-0.052880166332159556,1.00491650323298,0.0019681366322861216
2026-05-22T02:37:50.902+00:00,1779417470902681000,189,R,7567,7810,9069,10275,7567,7810,9069,10275,19174,23452,18423,22120,-130,-219,-25,-0.509804,-0.858824,-0.098039,0,79,b3050,2026-05-22 02:37:50.902000+00:00,5.402,6.266666666666667,5.402,8680.25,20792.25,-0.13805401363283384,-0.03605812569862619,1.0035389513681072,0.0009662714740259482
2026-05-22T02:37:50.902+00:00,1779417470902746000,190,R,7572,7811,9075,10276,7572,7811,9075,10276,19172,23456,18423,22117,-129,-219,-26,-0.505882,-0.858824,-0.101961,0,79,c3050,2026-05-22 02:37:50.902000+00:00,5.402,6.3,5.402,8683.5,20792.0,-0.10066438494060802,-0.037260063221913726,1.0019437641010598,-0.0006289157930214895
2026-05-22T02:37:51.051+00:00,1779417471051837000,191,R,7572,7813,9073,10277,7572,7813,9073,10277,19174,23453,18423,22119,-127,-219,-26,-0.498039,-0.858824,-0.101961,0,79,d3050,2026-05-22 02:37:51.051000+00:00,5.551,6.333333333333333,5.551,8683.75,20792.25,-0.09778825965659065,-0.03605812569862619,0.9980067905670783,-0.00456588932700297
2026-05-22T02:37:51.051+00:00,1779417471051983000,192,R,7572,7815,9074,10277,7572,7815,9074,10277,19173,23454,18422,22122,-127,-219,-26,-0.498039,-0.858824,-0.101961,0,79,e3050,2026-05-22 02:37:51.051000+00:00,5.551,6.366666666666666,5.551,8684.5,20792.75,-0.08915988380453853,-0.033654250652051104,0.9980067905670783,-0.00456588932700297
2026-05-22T02:37:51.052+00:00,1779417471052058000,193,R,7573,7813,9077,10279,7573,7813,9077,10279,19175,23456,18425,22123,-128,-220,-26,-0.501961,-0.862745,-0.101961,0,79,f3050,2026-05-22 02:37:51.052000+00:00,5.552,6.4,5.552,8685.5,20794.75,-0.07765538266846904,-0.02403875046575079,1.00333933744621,0.000766657552128791
2026-05-22T02:37:51.052+00:00,1779417471052149000,194,R,7575,7822,9078,10287,7575,7822,9078,10287,19180,23459,18430,22130,-128,-220,-24,-0.501961,-0.862745,-0.094118,0,78,63110,2026-05-22 02:37:51.052000+00:00,5.552,6.433333333333334,5.552,8690.5,20799.75,-0.020132876988121603,0.0,1.0025726798940813,0.0
2026-05-22T02:37:51.052+00:00,1779417471052229000,195,R,7581,7819,9083,10290,7581,7819,9083,10290,19179,23461,18432,22135,-129,-218,-24,-0.505882,-0.854902,-0.094118,0,78,73110,2026-05-22 02:37:51.052000+00:00,5.552,6.466666666666667,5.552,8693.25,20801.75,0.011504501136069488,0.009615500186300316,0.9978137228220506,-0.004758957072030667
2026-05-22T02:37:51.201+00:00,1779417471201991000,196,R,7577,7823,9082,10288,7577,7823,9082,10288,19181,23461,18432,22133,-129,-219,-25,-0.505882,-0.858824,-0.098039,0,78,83110,2026-05-22 02:37:51.201000+00:00,5.701,6.5,5.701,8692.5,20801.75,0.002876125284017372,0.009615500186300316,1.0015522484728394,-0.001020431421241863
2026-05-22T02:37:51.202+00:00,1779417471202372000,197,R,7580,7824,9083,10289,7580,7824,9083,10289,19181,23465,18435,22133,-128,-220,-24,-0.501961,-0.862745,-0.094118,0,78,93110,2026-05-22 02:37:51.202000+00:00,5.702,6.533333333333333,5.702,8694.0,20803.5,0.020132876988121603,0.018029062849313094,1.0025726798940813,0.0
2026-05-22T02:37:51.202+00:00,1779417471202456000,198,R,7580,7822,9081,10291,7580,7822,9081,10291,19184,23462,18435,22138,-127,-221,-25,-0.498039,-0.866667,-0.098039,0,78,a3110,2026-05-22 02:37:51.202000+00:00,5.702,6.566666666666666,5.702,8693.5,20804.75,0.014380626420086858,0.02403875046575079,1.0043735261002253,0.0018008462061440689
2026-05-22T02:37:51.202+00:00,1779417471202524000,199,R,7584,7830,9089,10304,7584,7830,9089,10304,19189,23470,18442,22147,-129,-219,-24,-0.505882,-0.858824,-0.094118,0,78,23180,2026-05-22 02:37:51.202000+00:00,5.702,6.6,5.702,8701.75,20812.0,0.10929276079266013,0.05889493864108944,1.001176037879453,-0.001396642014628302
2026-05-22T02:37:51.202+00:00,1779417471202589000,200,R,7592,7830,9099,10305,7592,7830,9099,10305,19189,23477,18445,22148,-130,-219,-24,-0.509804,-0.858824,-0.094118,0,78,33180,2026-05-22 02:37:51.202000+00:00,5.702,6.633333333333334,5.702,8706.5,20814.75,0.1639391411889902,0.07211625139725238,1.0031634858366805,0.000590805942599193
2026-05-22T02:37:51.202+00:00,1779417471202652000,201,R,7585,7832,9093,10303,7585,7832,9093,10303,19192,23478,18446,22148,-130,-220,-24,-0.509804,-0.862745,-0.094118,0,78,43180,2026-05-22 02:37:51.202000+00:00,5.702,6.666666666666667,5.702,8703.25,20816.0,0.12654951249676435,0.07812593901369007,1.006522355124316,0.003949675230234817
2026-05-22T02:37:51.501+00:00,1779417471502017000,202,R,7587,7833,9091,10307,7587,7833,9091,10307,19194,23482,18446,22147,-130,-219,-24,-0.509804,-0.858824,-0.094118,0,78,53180,2026-05-22 02:37:51.501000+00:00,6.001,6.7,6.001,8704.5,20817.25,0.14093013891685122,0.08413562663012776,1.0031634858366805,0.000590805942599193
2026-05-22T02:37:51.502+00:00,1779417471502165000,203,R,7588,7835,9092,10308,7588,7835,9092,10308,19193,23481,18447,22153,-127,-222,-24,-0.498039,-0.870588,-0.094118,0,78,63180,2026-05-22 02:37:51.502000+00:00,6.002,6.733333333333333,6.002,8705.75,20818.5,0.15531076533693808,0.09014531424656547,1.0073849855884294,0.004812305694348096
2026-05-22T02:37:51.502+00:00,1779417471502239000,204,R,7580,7823,9083,10290,7580,7823,9083,10290,19185,23464,18439,22136,-130,-220,-25,-0.509804,-0.862745,-0.098039,0,78,e3250,2026-05-22 02:37:51.502000+00:00,6.002,6.766666666666667,6.002,8694.0,20806.0,0.020132876988121603,0.03004843808218849,1.006896568154843,0.004323888260761688
2026-05-22T02:37:51.502+00:00,1779417471502306000,205,R,7574,7817,9078,10283,7574,7817,9078,10283,19182,23466,18432,22130,-129,-219,-25,-0.505882,-0.858824,-0.098039,0,78,f3250,2026-05-22 02:37:51.502000+00:00,6.002,6.8,6.002,8688.0,20802.5,-0.04889412982829532,0.013221312756162935,1.0015522484728394,-0.001020431421241863
2026-05-22T02:37:51.502+00:00,1779417471502371000,206,R,7579,7821,9082,10288,7579,7821,9082,10288,19179,23463,18430,22124,-128,-219,-26,-0.501961,-0.858824,-0.101961,0,78,03250,2026-05-22 02:37:51.502000+00:00,6.002,6.833333333333333,6.002,8692.5,20799.0,0.002876125284017372,0.0,0.9999697765522717,-0.0026029033418095704
2026-05-22T02:37:51.799+00:00,1779417471799179000,207,R,7575,7817,9078,10281,7575,7817,9078,10281,19180,23460,18427,22124,-128,-221,-25,-0.501961,-0.866667,-0.098039,0,78,13250,2026-05-22 02:37:51.799000+00:00,6.299,6.866666666666666,6.299,8687.75,20797.75,-0.03451946034576993,-0.00480798124887313,1.006324092890059,0.0037514129959776987
2026-05-22T02:37:51.799+00:00,1779417471799292000,208,R,7577,7818,9079,10281,7577,7818,9079,10281,19178,23458,18427,22121,-126,-220,-25,-0.494118,-0.862745,-0.098039,0,78,23250,2026-05-22 02:37:51.799000+00:00,6.299,6.9,6.299,8688.75,20796.0,-0.02013693113169553,-0.00841437174694378,0.999046134305118,-0.003526545588963259
2026-05-22T02:37:51.799+00:00,1779417471799362000,209,R,7565,7812,9068,10268,7565,7812,9068,10268,19163,23444,18419,22102,-127,-220,-25,-0.498039,-0.862745,-0.098039,0,78,a3320,2026-05-22 02:37:51.799000+00:00,6.299,6.933333333333334,6.299,8678.25,20782.0,-0.1409585179218687,-0.07572934572249403,1.0009912217731982,-0.0015814581208830614
2026-05-22T02:37:51.799+00:00,1779417471799425000,210,R,7571,7814,9069,10270,7571,7814,9069,10270,19156,23438,18416,22100,-128,-220,-25,-0.501961,-0.862745,-0.098039,0,78,b3320,2026-05-22 02:37:51.799000+00:00,6.299,6.966666666666667,6.299,8681.0,20777.5,-0.10931476900063287,-0.0973663016432066,1.002948366600694,0.000375686706612699
2026-05-22T02:37:51.799+00:00,1779417471799488000,211,R,7565,7813,9067,10269,7565,7813,9067,10269,19162,23440,18418,22103,-127,-222,-24,-0.498039,-0.870588,-0.094118,0,78,c3320,2026-05-22 02:37:51.799000+00:00,6.299,7.0,6.299,8678.5,20780.75,-0.13808181347448364,-0.08173961125602529,1.0073849855884294,0.004812305694348096
2026-05-22T02:37:52.099+00:00,1779417472099138000,212,R,7566,7811,9068,10269,7566,7811,9068,10269,19161,23439,18421,22102,-127,-222,-25,-0.498039,-0.870588,-0.098039,0,78,d3320,2026-05-22 02:37:52.099000+00:00,6.599,7.033333333333333,6.599,8678.5,20780.75,-0.13808181347448364,-0.08173961125602529,1.007758878296788,0.005186198402706621
2026-05-22T02:37:52.099+00:00,1779417472099177000,213,R,7568,7814,9067,10270,7568,7814,9067,10270,19164,23435,18419,22103,-126,-219,-26,-0.494118,-0.858824,-0.101961,0,78,e3320,2026-05-22 02:37:52.099000+00:00,6.599,7.066666666666666,6.599,8679.75,20780.25,-0.12369829123755825,-0.0841437174694378,0.9960558751500842,-0.006516804743997073
2026-05-22T02:37:52.099+00:00,1779417472099194000,214,R,7569,7816,9067,10270,7569,7816,9067,10270,19166,23436,18424,22103,-127,-218,-25,-0.498039,-0.854902,-0.098039,0,78,f3320,2026-05-22 02:37:52.099000+00:00,6.599,7.1,6.599,8680.5,20782.25,-0.11506817789540302,-0.07452729261578776,0.9942393678817995,-0.008333312012281824
2026-05-22T02:37:52.099+00:00,1779417472099209000,215,R,7581,7821,9069,10269,7581,7821,9069,10269,19189,23433,18428,22099,-125,-217,-25,-0.490196,-0.85098,-0.098039,0,78,53370,2026-05-22 02:37:52.099000+00:00,6.599,7.133333333333334,6.599,8685.0,20787.25,-0.06328749784247166,-0.05048623048166268,0.9869502137073581,-0.015622466186723138
2026-05-22T02:37:52.099+00:00,1779417472099223000,216,R,7580,7823,9068,10269,7580,7823,9068,10269,19194,23431,18431,22099,-125,-218,-23,-0.490196,-0.854902,-0.090196,0,78,63370,2026-05-22 02:37:52.099000+00:00,6.599,7.166666666666667,6.599,8685.0,20788.75,-0.06328749784247166,-0.04327391184142516,0.9895882307485271,-0.0123555333525327
2026-05-22T02:37:52.250+00:00,1779417472251012000,217,R,7585,7826,9072,10270,7585,7826,9072,10270,19202,23436,18434,22101,-126,-218,-26,-0.494118,-0.854902,-0.101961,0,78,73370,2026-05-22 02:37:52.250000+00:00,6.75,7.2,6.75,8688.25,20793.25,-0.02589034002646568,-0.02163695592071258,0.9926762176304015,-0.008876030842437932
2026-05-22T02:37:52.251+00:00,1779417472251160000,218,R,7588,7825,9077,10273,7588,7825,9077,10273,19210,23436,18437,22101,-125,-220,-25,-0.490196,-0.862745,-0.098039,0,78,83370,2026-05-22 02:37:52.251000+00:00,6.751,7.233333333333333,6.751,8690.75,20796.0,0.0028767044473850755,-0.00841437174694378,0.9971121797280385,-0.004440068744800962
2026-05-22T02:37:52.251+00:00,1779417472251233000,219,R,7594,7832,9077,10276,7594,7832,9077,10276,19218,23434,18441,22102,-129,-218,-27,-0.505882,-0.854902,-0.105882,0,78,93370,2026-05-22 02:37:52.251000+00:00,6.751,7.266666666666667,6.751,8694.75,20798.75,0.04890397560554629,0.004808212426825017,0.9989920046987364,-0.0025602437741030215
2026-05-22T02:37:52.251+00:00,1779417472251298000,220,R,7626,7850,9097,10297,7626,7850,9097,10297,19275,23451,18462,22123,-130,-218,-28,-0.509804,-0.854902,-0.109804,0,78,13440,2026-05-22 02:37:52.251000+00:00,6.751,7.3,6.751,8717.5,20827.75,0.31068408031758815,0.1442463728047505,1.0014062444562646,-0.00014600401657482998
2026-05-22T02:37:52.251+00:00,1779417472251362000,221,R,7628,7851,9102,10300,7628,7851,9102,10300,19278,23450,18466,22127,-130,-217,-29,-0.509804,-0.85098,-0.113725,0,78,23440,2026-05-22 02:37:52.251000+00:00,6.751,7.333333333333333,6.751,8720.25,20830.25,0.33944136006673764,0.15145140933950357,0.9984991008714028,-0.002907143584861771
2026-05-22T02:37:52.251+00:00,1779417472251424000,222,R,7629,7852,9101,10301,7629,7852,9101,10301,19277,23453,18469,22127,-132,-218,-28,-0.517647,-0.854902,-0.109804,0,78,33440,2026-05-22 02:37:52.251000+00:00,6.751,7.366666666666666,6.751,8720.75,20831.5,0.3249928098935864,0.1562575123804029,1.0054216849804862,0.0038694365076468173
2026-05-22T02:37:52.549+00:00,1779417472549955000,223,R,7627,7854,9101,10305,7627,7854,9101,10305,19278,23460,18472,22132,-132,-220,-26,-0.517647,-0.862745,-0.101961,0,78,43440,2026-05-22 02:37:52.549000+00:00,7.049,7.4,7.049,8721.75,20835.5,0.3364969801553063,0.17187706583011816,1.0112781007986873,0.009725852325847884
2026-05-22T02:37:52.550+00:00,1779417472550107000,224,R,7628,7851,9102,10302,7628,7851,9102,10302,19276,23461,18469,22131,-133,-217,-28,-0.521569,-0.85098,-0.109804,0,78,53440,2026-05-22 02:37:52.550000+00:00,7.05,7.433333333333334,7.05,8720.75,20834.25,0.3249928098935864,0.1586443122408509,1.0041205607779375,0.0025683123050981305
2026-05-22T02:37:52.550+00:00,1779417472550185000,225,R,7562,7841,9085,10301,7562,7841,9085,10301,19149,23466,18465,22130,-131,-219,-25,-0.513725,-0.858824,-0.098039,0,78,d3510,2026-05-22 02:37:52.550000+00:00,7.05,7.466666666666667,7.05,8697.25,20802.5,0.04601271101141691,0.0048073456241136455,1.005536515558734,0.0039842670858944995
2026-05-22T02:37:52.550+00:00,1779417472550694000,226,R,7563,7839,9088,10296,7563,7839,9088,10296,19151,23466,18458,22131,-120,-203,-29,-0.470588,-0.796078,-0.113725,0,78,e3510,2026-05-22 02:37:52.550000+00:00,7.05,7.5,7.05,8696.5,20801.5,0.034508540863863804,0.0,0.9317331288802604,-0.06981911959257903
2026-05-22T02:37:52.550+00:00,1779417472550793000,227,R,7568,7835,9090,10301,7568,7835,9090,10301,19157,23468,18451,22129,-131,-211,-23,-0.513725,-0.827451,-0.090196,0,78,f3510,2026-05-22 02:37:52.550000+00:00,7.05,7.533333333333333,7.05,8698.5,20801.25,0.051759834368530024,-0.0012018364060284114,0.9781226157501931,-0.02342963272264631
2026-05-22T02:37:52.552+00:00,1779417472552393000,228,R,7573,7839,9087,10303,7573,7839,9087,10303,19161,23466,18454,22135,-139,-216,-20,-0.545098,-0.847059,-0.078431,0,78,03510,2026-05-22 02:37:52.552000+00:00,7.052,7.566666666666666,7.052,8700.5,20804.0,0.07476420519898781,0.012018364060284115,1.0103426155745387,0.008790367101699337
2026-05-22T02:37:52.552+00:00,1779417472552475000,229,R,7575,7839,9092,10305,7575,7839,9092,10305,19167,23467,18453,22141,-137,-218,-21,-0.537255,-0.854902,-0.082353,0,78,13510,2026-05-22 02:37:52.552000+00:00,7.052,7.6,7.052,8702.75,20807.0,0.0920095459903965,0.02644040093262505,1.013055961552964,0.011503713080124545
2026-05-22T02:37:52.552+00:00,1779417472552543000,230,R,7597,7837,9107,10317,7597,7837,9107,10317,19201,23477,18440,22157,-128,-218,-22,-0.501961,-0.854902,-0.086275,0,78,93580,2026-05-22 02:37:52.552000+00:00,7.052,7.633333333333334,7.052,8714.5,20818.75,0.22714856666379138,0.08292671201596039,0.9951209226772394,-0.006431325795600018
2026-05-22T02:37:52.552+00:00,1779417472552606000,231,R,7601,7836,9105,10319,7601,7836,9105,10319,19205,23478,18441,22161,-130,-218,-21,-0.509804,-0.854902,-0.082353,0,78,a3580,2026-05-22 02:37:52.552000+00:00,7.052,7.666666666666667,7.052,8715.25,20821.25,0.23577446160039103,0.0949450760762445,0.9987690246643616,-0.0026372197919030116
2026-05-22T02:37:52.552+00:00,1779417472552669000,232,R,7603,7837,9108,10323,7603,7837,9108,10323,19209,23485,18439,22164,-135,-220,-19,-0.529412,-0.862745,-0.07451,0,78,b3580,2026-05-22 02:37:52.552000+00:00,7.052,7.7,7.052,8717.75,20824.25,0.2645274447223899,0.10936711294858543,1.0149668668823628,0.013975645109164603
2026-05-22T02:37:52.848+00:00,1779417472848928000,233,R,7600,7834,9110,10322,7600,7834,9110,10322,19204,23485,18438,22164,-133,-219,-22,-0.521569,-0.858824,-0.086275,0,78,c3580,2026-05-22 02:37:52.848000+00:00,7.348,7.733333333333333,7.348,8716.5,20822.75,0.2501509531613905,0.10215609451241497,1.0084920725330468,0.007500850759848632
2026-05-22T02:37:52.849+00:00,1779417472849037000,234,R,7603,7831,9111,10325,7603,7831,9111,10325,19207,23488,18430,22165,-128,-221,-22,-0.501961,-0.866667,-0.086275,0,78,d3580,2026-05-22 02:37:52.849000+00:00,7.349,7.766666666666667,7.349,8717.5,20822.5,0.2616521464101901,0.10095425810638656,1.005246193743105,0.004254971969906762
2026-05-22T02:37:52.849+00:00,1779417472849091000,235,R,7601,7828,9109,10316,7601,7828,9109,10316,19206,23490,18426,22163,-127,-221,-22,-0.498039,-0.866667,-0.086275,0,78,e3580,2026-05-22 02:37:52.849000+00:00,7.349,7.8,7.349,8713.5,20821.25,0.1954809406082907,0.0949450760762445,1.003293531343146,0.0023023095699477025
2026-05-22T02:37:52.849+00:00,1779417472849139000,236,R,7580,7814,9090,10286,7580,7814,9090,10286,19173,23467,18404,22122,-127,-220,-22,-0.498039,-0.862745,-0.086275,0,78,43630,2026-05-22 02:37:52.849000+00:00,7.349,7.833333333333333,7.349,8692.5,20791.5,-0.054614964500273075,-0.04807345624113646,0.9999075738142,-0.00023105533128009448
2026-05-22T02:37:52.849+00:00,1779417472849185000,237,R,7577,7812,9089,10283,7577,7812,9089,10283,19170,23463,18409,22117,-128,-218,-21,-0.501961,-0.854902,-0.082353,0,78,53630,2026-05-22 02:37:52.849000+00:00,7.349,7.866666666666666,7.349,8690.25,20789.75,-0.09484393861010519,-0.056486311083335336,0.9947885663466384,-0.006202655426559844
2026-05-22T02:37:52.999+00:00,1779417472999775000,238,R,7577,7813,9087,10283,7577,7813,9087,10283,19166,23461,18403,22115,-130,-217,-22,-0.509804,-0.85098,-0.086275,0,78,63630,2026-05-22 02:37:52.999000+00:00,7.499,7.9,7.499,8690.0,20786.25,-0.09771799735586595,-0.07331202076773309,0.9957461797270427,-0.004392449418437416
2026-05-22T02:37:52.999+00:00,1779417472999923000,239,R,7574,7813,9086,10282,7574,7813,9086,10282,19166,23461,18402,22111,-131,-220,-21,-0.513725,-0.862745,-0.082353,0,78,73630,2026-05-22 02:37:52.999000+00:00,7.499,7.933333333333334,7.499,8688.75,20785.0,-0.11208829108466976,-0.07932120279787515,1.0074841573240743,0.007230639978596409
2026-05-22T02:37:52.999+00:00,1779417472999996000,240,R,7574,7809,9088,10281,7574,7809,9088,10281,19162,23454,18402,22112,-129,-219,-21,-0.505882,-0.858824,-0.082353,0,78,83630,2026-05-22 02:37:52.999000+00:00,7.499,7.966666666666667,7.499,8688.0,20782.5,-0.12071046732195206,-0.09133956685815926,1.0001386291454801,0.0
2026-05-22T02:37:53.000+00:00,1779417473000061000,241,R,7567,7810,9079,10275,7567,7810,9079,10275,19148,23445,18402,22105,-122,-222,-23,-0.478431,-0.870588,-0.090196,0,78,13710,2026-05-22 02:37:53+00:00,7.5,8.0,7.5,8682.75,20775.0,-0.1810657009829281,-0.12739465903901162,0.9974743134141351,-0.0026643157313450683
2026-05-22T02:37:53.000+00:00,1779417473000123000,242,R,7563,7811,9081,10277,7563,7811,9081,10277,19144,23451,18405,22102,-126,-226,-21,-0.494118,-0.886275,-0.082353,0,78,23710,2026-05-22 02:37:53+00:00,7.5,8.033333333333333,7.5,8683.0,20775.5,-0.17819164223716732,-0.12499098622695479,1.0180461630780797,0.017907533932599584
2026-05-22T02:37:53.000+00:00,1779417473000186000,243,R,7558,7818,9082,10279,7558,7818,9082,10279,19132,23454,18409,22105,-124,-224,-22,-0.486275,-0.878431,-0.086275,0,78,33710,2026-05-22 02:37:53+00:00,7.5,8.066666666666666,7.5,8684.25,20775.0,-0.16382134850836352,-0.12739465903901162,1.0077439024925927,0.007605273347112584
2026-05-22T02:37:53.151+00:00,1779417473151813000,244,R,7550,7817,9083,10280,7550,7817,9083,10280,19127,23459,18417,22106,-125,-222,-22,-0.490196,-0.870588,-0.086275,0,78,43710,2026-05-22 02:37:53.151000+00:00,7.651,8.1,7.651,8682.5,20777.25,-0.18393975972868887,-0.11657813138475591,1.002825488200714,0.002571970855236083
2026-05-22T02:37:53.151+00:00,1779417473151962000,245,R,7550,7816,9084,10282,7550,7816,9084,10282,19123,23461,18417,22105,-128,-216,-22,-0.501961,-0.847059,-0.086275,0,78,53710,2026-05-22 02:37:53.151000+00:00,7.651,8.133333333333333,7.651,8683.0,20776.5,-0.17819164223716732,-0.12018364060284115,0.9883912032323031,-0.011862314113174732
2026-05-22T02:37:53.152+00:00,1779417473152040000,246,R,7532,7830,9071,10288,7532,7830,9071,10288,19091,23454,18436,22105,-124,-219,-24,-0.486275,-0.858824,-0.094118,0,78,d3780,2026-05-22 02:37:53.152000+00:00,7.652,8.166666666666666,7.652,8680.25,20771.5,-0.20980628844053573,-0.14422036872340938,0.9914132521431213,-0.00884026520235659
2026-05-22T02:37:53.152+00:00,1779417473152108000,247,R,7532,7834,9072,10287,7532,7834,9072,10287,19095,23459,18440,22111,-125,-221,-24,-0.490196,-0.866667,-0.094118,0,78,e3780,2026-05-22 02:37:53.152000+00:00,7.652,8.2,7.652,8681.25,20776.25,-0.19831005345749267,-0.12138547700886955,1.0001309940347813,-0.00012252331069650957
2026-05-22T02:37:53.152+00:00,1779417473152171000,248,R,7534,7833,9074,10287,7534,7833,9074,10287,19101,23455,18445,22110,-123,-220,-24,-0.482353,-0.862745,-0.094118,0,78,f3780,2026-05-22 02:37:53.152000+00:00,7.652,8.233333333333333,7.652,8682.0,20777.75,-0.18968787722021038,-0.11417445857269909,0.992900573853193,-0.00735294349228488
2026-05-22T02:37:53.301+00:00,1779417473301933000,249,R,7539,7835,9075,10287,7539,7835,9075,10287,19104,23458,18444,22105,-127,-219,-24,-0.498039,-0.858824,-0.094118,0,78,03780,2026-05-22 02:37:53.301000+00:00,7.801,8.266666666666667,7.801,8684.0,20777.75,-0.16669540725412427,-0.11417445857269909,0.997236033454969,-0.003940004424483945
2026-05-22T02:37:53.302+00:00,1779417473302073000,250,R,7541,7835,9077,10286,7541,7835,9077,10286,19113,23460,18441,22103,-130,-220,-23,-0.509804,-0.862745,-0.090196,0,78,13780,2026-05-22 02:37:53.302000+00:00,7.802,8.3,7.802,8684.75,20779.25,-0.15807323101684198,-0.10696344013652861,1.0061631934517383,0.004756948995473742
2026-05-22T02:37:53.302+00:00,1779417473302149000,251,R,7597,7843,9108,10297,7597,7843,9108,10297,19207,23495,18443,22107,-130,-215,-24,-0.509804,-0.843137,-0.094118,0,78,83840,2026-05-22 02:37:53.302000+00:00,7.802,8.333333333333334,7.802,8711.25,20813.0,0.16097042168501538,0.0564869899645454,0.989766799356798,-0.012100036191220243
2026-05-22T02:37:53.302+00:00,1779417473302214000,252,R,7614,7850,9119,10302,7614,7850,9119,10302,19244,23504,18451,22114,-135,-223,-25,-0.529412,-0.87451,-0.098039,0,78,93840,2026-05-22 02:37:53.302000+00:00,7.802,8.366666666666667,7.802,8721.25,20828.25,0.2788317810739335,0.14665047901816303,1.0269646787329154,0.02509784318489716
2026-05-22T02:37:53.302+00:00,1779417473302279000,253,R,7630,7856,9132,10308,7630,7856,9132,10308,19275,23519,18458,22121,-133,-218,-25,-0.521569,-0.854902,-0.098039,0,78,a3840,2026-05-22 02:37:53.302000+00:00,7.802,8.4,7.802,8731.5,20843.25,0.39957455371259376,0.24407839365155706,1.0062322281093963,0.005056190229943303
2026-05-22T02:37:53.451+00:00,1779417473451958000,254,R,7647,7859,9138,10312,7647,7859,9138,10312,19306,23532,18462,22130,-130,-221,-26,-0.509804,-0.866667,-0.101961,0,78,b3840,2026-05-22 02:37:53.451000+00:00,7.951,8.433333333333334,7.951,8739.0,20857.5,0.4887023515207267,0.31743741432797057,1.010647244505223,0.009832286925151701
2026-05-22T02:37:53.452+00:00,1779417473452102000,255,R,7663,7861,9149,10317,7663,7861,9149,10317,19335,23540,18461,22139,-130,-220,-27,-0.509804,-0.862745,-0.105882,0,78,c3840,2026-05-22 02:37:53.452000+00:00,7.952,8.466666666666667,7.952,8747.5,20868.75,0.6124737613940248,0.37999494943421636,1.00769045414006,0.0068754965599886475
2026-05-22T02:37:53.452+00:00,1779417473452176000,256,R,7675,7860,9161,10322,7675,7860,9161,10322,19359,23552,18463,22152,-132,-213,-29,-0.517647,-0.835294,-0.113725,0,78,d3840,2026-05-22 02:37:53.452000+00:00,7.952,8.5,7.952,8754.5,20881.5,0.7132585562266321,0.4461547712103902,0.9892461062192764,-0.011368694026052562
2026-05-22T02:37:53.452+00:00,1779417473452243000,257,R,7692,7875,9161,10343,7692,7875,9161,10343,19397,23533,18482,22186,-124,-220,-27,-0.486275,-0.862745,-0.105882,0,78,43900,2026-05-22 02:37:53.452000+00:00,7.952,8.533333333333333,7.952,8767.75,20899.5,0.8685898357732463,0.5448313187804438,0.9959936287818311,-0.004821328798240265
2026-05-22T02:37:53.452+00:00,1779417473452307000,258,R,7657,7878,9140,10335,7657,7878,9140,10335,19338,23513,18491,22167,-135,-230,-27,-0.529412,-0.901961,-0.105882,0,77,53900,2026-05-22 02:37:53.452000+00:00,7.952,8.566666666666666,7.952,8752.5,20877.25,0.6931461934481866,0.43778940405316014,1.0512001280389003,0.050385170458828954
2026-05-22T02:37:53.602+00:00,1779417473602442000,259,R,7633,7878,9125,10335,7633,7878,9125,10335,19285,23493,18500,22164,-128,-222,-26,-0.501961,-0.870588,-0.101961,0,77,63900,2026-05-22 02:37:53.602000+00:00,8.102,8.6,8.102,8742.75,20860.5,0.5809773073715091,0.3572072884719466,1.0100912616125337,0.009476461367204703
2026-05-22T02:37:53.602+00:00,1779417473602589000,260,R,7624,7870,9117,10333,7624,7870,9117,10333,19258,23486,18490,22165,-128,-216,-24,-0.501961,-0.847059,-0.094118,0,77,73900,2026-05-22 02:37:53.602000+00:00,8.102,8.633333333333333,8.102,8736.0,20849.75,0.50332192470304,0.30549040832280955,0.989106664079259,-0.011508136166070049
2026-05-22T02:37:53.602+00:00,1779417473602665000,261,R,7611,7865,9110,10328,7611,7865,9110,10328,19235,23475,18484,22166,-128,-216,-25,-0.501961,-0.847059,-0.098039,0,77,83900,2026-05-22 02:37:53.602000+00:00,8.102,8.666666666666666,8.102,8728.5,20840.0,0.41703816618251893,0.25858440074568523,0.9894874635501958,-0.011127336695133216
2026-05-22T02:37:53.602+00:00,1779417473602731000,262,R,7596,7849,9116,10331,7596,7849,9116,10331,19189,23495,18451,22169,-124,-221,-24,-0.486275,-0.866667,-0.094118,0,77,13980,2026-05-22 02:37:53.602000+00:00,8.102,8.7,8.102,8723.0,20826.0,0.35376340993413674,0.19123218473750678,0.998215038174641,-0.002599919405430362
2026-05-22T02:37:53.602+00:00,1779417473602795000,263,R,7598,7846,9117,10330,7598,7846,9117,10330,19190,23491,18447,22167,-126,-223,-24,-0.494118,-0.87451,-0.094118,0,77,23980,2026-05-22 02:37:53.602000+00:00,8.102,8.733333333333333,8.102,8722.75,20823.75,0.35088728465011937,0.1804077214504781,1.0088501057877726,0.00823530554244356
2026-05-22T02:37:53.602+00:00,1779417473602858000,264,R,7597,7841,9111,10322,7597,7841,9111,10322,19195,23490,18445,22162,-128,-221,-24,-0.501961,-0.866667,-0.094118,0,77,33980,2026-05-22 02:37:53.602000+00:00,8.102,8.766666666666667,8.102,8717.75,20823.0,0.2933647789697719,0.1792093140733435,1.005949666898896,0.005334866653567083
2026-05-22T02:37:53.902+00:00,1779417473902166000,265,R,7599,7838,9109,10320,7599,7838,9109,10320,19189,23483,18440,22156,-128,-222,-25,-0.501961,-0.870588,-0.098039,0,77,43980,2026-05-22 02:37:53.902000+00:00,8.402,8.8,8.402,8716.5,20817.0,0.27898415254968506,0.15034338428971772,1.0097029052082598,0.009088104962930776
2026-05-22T02:37:53.902+00:00,1779417473902323000,266,R,7595,7834,9107,10315,7595,7834,9107,10315,19191,23480,18433,22151,-130,-218,-23,-0.509804,-0.854902,-0.090196,0,77,53980,2026-05-22 02:37:53.902000+00:00,8.402,8.833333333333334,8.402,8712.75,20813.75,0.2387252646111367,0.13832090449843637,0.9994462799150339,-0.0011685203302951308
2026-05-22T02:37:53.902+00:00,1779417473902398000,267,R,7586,7816,9100,10301,7586,7816,9100,10301,19180,23472,18402,22137,-129,-219,-24,-0.505882,-0.858824,-0.094118,0,77,d4050,2026-05-22 02:37:53.902000+00:00,8.402,8.866666666666667,8.402,8700.75,20797.75,0.10354646647683148,0.06374942866078087,1.001176037879453,0.0005612376341239678
2026-05-22T02:37:53.902+00:00,1779417473902464000,268,R,7581,7812,9103,10292,7581,7812,9103,10292,19173,23470,18400,22127,-131,-214,-25,-0.513725,-0.839216,-0.098039,0,77,e4050,2026-05-22 02:37:53.902000+00:00,8.402,8.9,8.402,8697.0,20792.5,0.06040210544481836,0.03969351792823893,0.9888420075027152,-0.011972950077356104
2026-05-22T02:37:53.902+00:00,1779417473902526000,269,R,7582,7813,9098,10294,7582,7813,9098,10294,19167,23468,18395,22125,-127,-220,-23,-0.498039,-0.862745,-0.090196,0,77,f4050,2026-05-22 02:37:53.902000+00:00,8.402,8.933333333333334,8.402,8696.75,20788.75,0.05752581470935082,0.03007337904486948,1.0002535173454778,-0.0005614402345934799
2026-05-22T02:37:54.051+00:00,1779417474051032000,270,R,7579,7810,9096,10292,7579,7810,9096,10292,19164,23464,18395,22120,-128,-219,-24,-0.501961,-0.858824,-0.094118,0,77,04050,2026-05-22 02:37:54.051000+00:00,8.551,8.966666666666667,8.551,8694.25,20785.75,0.02876290735467541,0.016841294854984423,0.9992005336372675,-0.001414266608061543
2026-05-22T02:37:54.051+00:00,1779417474051143000,271,R,7575,7808,9095,10289,7575,7808,9095,10289,19163,23462,18393,22119,-129,-220,-24,-0.505882,-0.862745,-0.094118,0,77,14050,2026-05-22 02:37:54.051000+00:00,8.551,9.0,8.551,8691.75,20784.25,0.0,0.012029785749515801,1.0045415525865518,0.0037265950064804265
2026-05-22T02:37:54.051+00:00,1779417474051217000,272,R,7577,7811,9094,10287,7577,7811,9094,10287,19160,23457,18392,22114,-129,-222,-21,-0.505882,-0.870588,-0.082353,0,77,94120,2026-05-22 02:37:54.051000+00:00,8.551,9.033333333333333,8.551,8692.25,20780.75,0.005752581470935082,-0.004811914299806321,1.0102584225221782,0.00908238464272526
2026-05-22T02:37:54.051+00:00,1779417474051443000,273,R,7568,7808,9083,10281,7568,7808,9083,10281,19159,23460,18393,22117,-126,-222,-22,-0.494118,-0.870588,-0.086275,0,77,a4120,2026-05-22 02:37:54.051000+00:00,8.551,9.066666666666666,8.551,8685.0,20782.25,-0.07765984985762361,0.0024059571499031604,1.0047484457778475,0.003933488197776169
2026-05-22T02:37:54.051+00:00,1779417474051527000,274,R,7575,7810,9094,10289,7575,7810,9094,10289,19161,23459,18391,22112,-128,-220,-22,-0.501961,-0.862745,-0.086275,0,77,b4120,2026-05-22 02:37:54.051000+00:00,8.551,9.1,8.551,8692.0,20780.75,0.002876290735467541,-0.004811914299806321,1.0018668355480183,0.0012520353026892472
2026-05-22T02:37:54.347+00:00,1779417474347509000,275,R,7573,7810,9091,10287,7573,7810,9091,10287,19158,23457,18396,22116,-129,-217,-22,-0.505882,-0.85098,-0.086275,0,77,c4120,2026-05-22 02:37:54.347000+00:00,8.847,9.133333333333333,8.847,8690.25,20781.75,-0.017257744412805247,0.0,0.9937438975656655,-0.006870902679663504
2026-05-22T02:37:54.347+00:00,1779417474347673000,276,R,7575,7811,9090,10287,7575,7811,9090,10287,19156,23455,18392,22111,-124,-219,-23,-0.486275,-0.858824,-0.090196,0,77,d4120,2026-05-22 02:37:54.347000+00:00,8.847,9.166666666666666,8.847,8690.75,20778.5,-0.011505162941870165,-0.01563872147437054,0.9910486148605425,-0.009566185384786485
2026-05-22T02:37:54.347+00:00,1779417474347749000,277,R,7572,7812,9089,10286,7572,7812,9089,10286,19151,23451,18395,22113,-127,-220,-21,-0.498039,-0.862745,-0.082353,0,77,e4120,2026-05-22 02:37:54.347000+00:00,8.847,9.2,8.847,8689.75,20777.5,-0.02301032588374033,-0.020450635774176863,0.9995768090322024,-0.0010379912131266433
2026-05-22T02:37:54.347+00:00,1779417474347814000,278,R,7559,7817,9087,10292,7559,7817,9087,10292,19133,23451,18409,22115,-128,-218,-23,-0.501961,-0.854902,-0.090196,0,77,54180,2026-05-22 02:37:54.347000+00:00,8.847,9.233333333333333,8.847,8688.75,20777.0,-0.034515488825610494,-0.022856592924080023,0.9954685296587734,-0.005346427921297914
2026-05-22T02:37:54.347+00:00,1779417474347877000,279,R,7561,7820,9087,10293,7561,7820,9087,10293,19131,23446,18409,22119,-128,-220,-23,-0.501961,-0.862745,-0.090196,0,77,64180,2026-05-22 02:37:54.347000+00:00,8.847,9.266666666666667,8.847,8690.25,20776.25,-0.017257744412805247,-0.026465528648934762,1.0022121027816417,0.0010360649021887713
2026-05-22T02:37:54.347+00:00,1779417474347946000,280,R,7559,7822,9082,10295,7559,7822,9082,10295,19128,23439,18416,22121,-129,-221,-24,-0.505882,-0.866667,-0.094118,0,77,74180,2026-05-22 02:37:54.347000+00:00,8.847,9.3,8.847,8689.5,20776.0,-0.02588661661920787,-0.027668507223886342,1.0079119429478947,0.006735905068441683
2026-05-22T02:37:54.353+00:00,1779417474353994000,281,R,7554,7826,9080,10299,7554,7826,9080,10299,19124,23441,18420,22122,-128,-220,-23,-0.501961,-0.862745,-0.090196,0,77,84180,2026-05-22 02:37:54.353000+00:00,8.853,9.333333333333334,8.853,8689.75,20776.75,-0.025885872066267832,-0.024059571499031603,1.0022121027816417,0.0010360649021887713
2026-05-22T02:37:54.354+00:00,1779417474354073000,282,R,7552,7828,9075,10299,7552,7828,9075,10299,19122,23435,18422,22122,-127,-220,-24,-0.498039,-0.862745,-0.094118,0,77,94180,2026-05-22 02:37:54.354000+00:00,8.854,9.366666666666667,8.854,8688.5,20775.25,-0.040266912103083294,-0.026466802208774946,1.000614800245329,-0.0005612376341239678
2026-05-22T02:37:54.354+00:00,1779417474354138000,283,R,7560,7832,9022,10324,7560,7832,9022,10324,19130,23332,18434,22191,-129,-219,-23,-0.505882,-0.858824,-0.090196,0,77,f4230,2026-05-22 02:37:54.354000+00:00,8.854,9.4,8.854,8684.5,20771.75,-0.08628624022089278,-0.043309312705268097,1.0008149575800713,-5.317685622885371e-05
2026-05-22T02:37:54.354+00:00,1779417474354201000,284,R,7563,7831,9015,10328,7563,7831,9015,10328,19137,23321,18431,22206,-127,-220,-23,-0.498039,-0.862745,-0.090196,0,77,04230,2026-05-22 02:37:54.354000+00:00,8.854,9.433333333333334,8.854,8684.25,20773.75,-0.08916244822825586,-0.0336850209929863,1.0002535173454778,-0.0005614402345934799
2026-05-22T02:37:54.354+00:00,1779417474354263000,285,R,7563,7828,9010,10335,7563,7828,9010,10335,19137,23309,18429,22217,-126,-222,-23,-0.494118,-0.870588,-0.090196,0,77,14230,2026-05-22 02:37:54.354000+00:00,8.854,9.466666666666667,8.854,8684.0,20773.0,-0.09203865623561897,-0.037294130385091974,1.005092723127573,0.004477922882244023
2026-05-22T02:37:54.501+00:00,1779417474501867000,286,R,7563,7827,9009,10335,7563,7827,9009,10335,19139,23298,18426,22229,-127,-220,-24,-0.498039,-0.862745,-0.094118,0,77,24230,2026-05-22 02:37:54.501000+00:00,9.001,9.5,9.001,8683.5,20773.0,-0.09779107225034514,-0.037294130385091974,1.000614800245329,0.0
2026-05-22T02:37:54.502+00:00,1779417474502017000,287,R,7572,7827,9008,10344,7572,7827,9008,10344,19145,23296,18425,22234,-128,-220,-25,-0.501961,-0.862745,-0.098039,0,77,34230,2026-05-22 02:37:54.502000+00:00,9.002,9.533333333333333,9.002,8687.75,20775.0,-0.04889553612517257,-0.027669838672810174,1.002948366600694,0.0021334090206226453
2026-05-22T02:37:54.502+00:00,1779417474502091000,288,R,7590,7825,9081,10330,7590,7825,9081,10330,19172,23421,18407,22182,-128,-218,-25,-0.501961,-0.854902,-0.098039,0,77,d4320,2026-05-22 02:37:54.502000+00:00,9.002,9.566666666666666,9.002,8706.5,20795.5,0.16682006442705938,0.07097915137807827,0.9962097774294328,-0.004658357006867342
2026-05-22T02:37:54.502+00:00,1779417474502158000,289,R,7589,7824,9084,10324,7589,7824,9084,10324,19179,23436,18411,22181,-131,-217,-23,-0.513725,-0.85098,-0.090196,0,77,e4320,2026-05-22 02:37:54.502000+00:00,9.002,9.6,9.002,8705.25,20801.75,0.1524390243902439,0.10105506297895889,0.9981060336662633,-0.0027621007700369127
2026-05-22T02:37:54.502+00:00,1779417474502223000,290,R,7593,7828,9095,10330,7593,7828,9095,10330,19181,23446,18411,22176,-131,-217,-22,-0.513725,-0.85098,-0.086275,0,77,f4320,2026-05-22 02:37:54.502000+00:00,9.002,9.633333333333333,9.002,8711.5,20803.5,0.2243442245743212,0.10947631822720547,0.9977593455588376,-0.0030556120212337223
2026-05-22T02:37:54.651+00:00,1779417474651946000,291,R,7594,7828,9099,10333,7594,7828,9099,10333,19183,23455,18414,22177,-148,-219,-23,-0.580392,-0.858824,-0.090196,0,77,04320,2026-05-22 02:37:54.651000+00:00,9.151,9.666666666666666,9.151,8713.5,20807.25,0.25023729398567607,0.12993106435196883,1.0404656914362913,0.039597556999991124
2026-05-22T02:37:54.652+00:00,1779417474652083000,292,R,7595,7832,9101,10333,7595,7832,9101,10333,19183,23461,18418,22179,-128,-220,-23,-0.501961,-0.862745,-0.090196,0,77,14320,2026-05-22 02:37:54.652000+00:00,9.152,9.7,9.152,8715.25,20810.25,0.2732554794914572,0.14436784927996535,1.0022121027816417,0.0010360649021887713
2026-05-22T02:37:54.652+00:00,1779417474652157000,293,R,7595,7828,9101,10332,7595,7828,9101,10332,19182,23460,18416,22175,-125,-221,-23,-0.490196,-0.866667,-0.090196,0,77,24320,2026-05-22 02:37:54.652000+00:00,9.152,9.733333333333333,9.152,8714.0,20808.25,0.2646415832470372,0.13594802694898941,0.9997695363037423,-0.0014065015757106503
2026-05-22T02:37:54.652+00:00,1779417474652222000,294,R,7584,7808,9092,10300,7584,7808,9092,10300,19172,23449,18385,22137,-134,-219,-21,-0.52549,-0.858824,-0.082353,0,77,94380,2026-05-22 02:37:54.652000+00:00,9.152,9.766666666666667,9.152,8696.0,20785.75,0.05753077896674721,0.02887426460857325,1.01019820811809,0.009330073681789841
2026-05-22T02:37:54.652+00:00,1779417474652285000,295,R,7580,7808,9088,10300,7580,7808,9088,10300,19167,23448,18388,22135,-134,-216,-22,-0.52549,-0.847059,-0.086275,0,77,a4380,2026-05-22 02:37:54.652000+00:00,9.152,9.8,9.152,8694.0,20784.5,0.03739608204125076,0.02767250195512242,1.000545883608543,-0.0003222508277571645
2026-05-22T02:37:54.803+00:00,1779417474803131000,296,R,7577,7807,9085,10295,7577,7807,9085,10295,19163,23446,18381,22133,-134,-218,-21,-0.52549,-0.854902,-0.082353,0,77,b4380,2026-05-22 02:37:54.803000+00:00,9.303,9.833333333333334,9.303,8691.0,20780.75,0.005753408894770151,0.010828500613615035,1.0068660220272607,0.0060510644471893915
2026-05-22T02:37:54.803+00:00,1779417474803271000,297,R,7568,7805,9081,10293,7568,7805,9081,10293,19156,23442,18388,22133,-136,-219,-20,-0.533333,-0.858824,-0.078431,0,77,c4380,2026-05-22 02:37:54.803000+00:00,9.303,9.866666666666667,9.303,8686.75,20779.75,-0.04027502085670723,0.009625681317755772,1.0139892374310489,0.013174279850977522
2026-05-22T02:37:54.803+00:00,1779417474803346000,298,R,7568,7806,9079,10293,7568,7806,9079,10293,19151,23438,18381,22132,-134,-219,-21,-0.52549,-0.858824,-0.082353,0,77,d4380,2026-05-22 02:37:54.803000+00:00,9.303,9.9,9.303,8686.5,20775.5,-0.043151808060757746,-0.010828891482475244,1.01019820811809,0.009583407872761018
2026-05-22T02:37:54.803+00:00,1779417474803412000,299,R,7555,7797,9071,10282,7555,7797,9071,10282,19129,23428,18375,22115,-129,-218,-24,-0.505882,-0.854902,-0.094118,0,77,44440,2026-05-22 02:37:54.803000+00:00,9.303,9.933333333333334,9.303,8676.25,20761.75,-0.1553554475099974,-0.07580315244856214,0.9978137228220506,-0.0028010774232783975
2026-05-22T02:37:54.803+00:00,1779417474803476000,300,R,7555,7799,9072,10283,7555,7799,9072,10283,19133,23424,18374,22110,-131,-217,-23,-0.513725,-0.85098,-0.090196,0,77,54440,2026-05-22 02:37:54.803000+00:00,9.303,9.966666666666667,9.303,8677.25,20760.25,-0.14384763658333094,-0.08061799104779323,0.9981060336662633,-0.002708923913808059
2026-05-22T02:37:54.803+00:00,1779417474803804000,301,R,7556,7803,9072,10282,7556,7803,9072,10282,19128,23426,18379,22113,-134,-220,-21,-0.52549,-0.862745,-0.082353,0,77,64440,2026-05-22 02:37:54.803000+00:00,9.303,10.0,9.303,8678.25,20761.5,-0.1294665976178146,-0.07460172305915194,1.0135337644765468,0.01271880689647542
2026-05-22T02:37:54.951+00:00,1779417474951403000,302,R,7555,7804,9074,10284,7555,7804,9074,10284,19127,23425,18379,22109,-136,-219,-22,-0.533333,-0.858824,-0.086275,0,77,74440,2026-05-22 02:37:54.951000+00:00,9.451,10.033333333333333,9.451,8679.25,20760.0,-0.1093367860739462,-0.0806189610983431,1.0146261023106,0.01381114473052869
2026-05-22T02:37:54.951+00:00,1779417474951461000,303,R,7558,7807,9075,10286,7558,7807,9075,10286,19130,23426,18384,22111,-133,-216,-24,-0.521569,-0.847059,-0.094118,0,77,84440,2026-05-22 02:37:54.951000+00:00,9.451,10.066666666666666,9.451,8681.5,20762.75,-0.08056626575358232,-0.06497803982913182,0.9992003648748333,-0.0014144353704956814
2026-05-22T02:37:54.951+00:00,1779417474951494000,304,R,7561,7814,9074,10284,7561,7814,9074,10284,19138,23430,18398,22109,-135,-215,-23,-0.529412,-0.843137,-0.090196,0,77,04510,2026-05-22 02:37:54.951000+00:00,9.451,10.1,9.451,8683.25,20768.75,-0.06042469931518674,-0.03489603388525221,0.9996461298524594,-0.0009686703928696305
2026-05-22T02:37:54.951+00:00,1779417474951523000,305,R,7559,7814,9076,10284,7559,7814,9076,10284,19133,23429,18400,22107,-130,-217,-24,-0.509804,-0.85098,-0.094118,0,77,14510,2026-05-22 02:37:54.951000+00:00,9.451,10.133333333333333,9.451,8683.25,20767.25,-0.06042469931518674,-0.03971023561406464,0.9964563596766293,-0.0041584405686997394
2026-05-22T02:37:54.951+00:00,1779417474951550000,306,R,7561,7814,9076,10284,7561,7814,9076,10284,19140,23425,18399,22103,-131,-216,-27,-0.513725,-0.847059,-0.105882,0,77,24510,2026-05-22 02:37:54.951000+00:00,9.451,10.166666666666666,9.451,8683.75,20766.75,-0.04604184052257489,-0.04091406842276266,0.9963098529222724,-0.00430494732305664
2026-05-22T02:37:55.101+00:00,1779417475101901000,307,R,7561,7815,9074,10283,7561,7815,9074,10283,19137,23424,18396,22109,-132,-219,-26,-0.517647,-0.858824,-0.101961,0,77,34510,2026-05-22 02:37:55.101000+00:00,9.601,10.2,9.601,8683.25,20766.5,-0.04029124816530923,-0.04091456077015644,1.0079350798072264,0.007120122227155079
2026-05-22T02:37:55.102+00:00,1779417475102081000,308,R,7562,7814,9076,10283,7562,7814,9076,10283,19134,23428,18394,22107,-131,-219,-28,-0.513725,-0.858824,-0.109804,0,77,44510,2026-05-22 02:37:55.102000+00:00,9.602,10.233333333333333,9.602,8683.75,20765.75,-0.03165832038220227,-0.038510138997532944,1.0067516858774064,0.005883551441106194
2026-05-22T02:37:55.102+00:00,1779417475102162000,309,R,7570,7822,9081,10291,7570,7822,9081,10291,19149,23435,18406,22118,-133,-217,-25,-0.521569,-0.85098,-0.098039,0,77,c4580,2026-05-22 02:37:55.102000+00:00,9.602,10.266666666666667,9.602,8691.0,20777.0,0.07484598998215211,0.019255764694555432,1.0029022024514653,0.001642284882605649
2026-05-22T02:37:55.102+00:00,1779417475102232000,310,R,7571,7821,9081,10293,7571,7821,9081,10293,19153,23432,18410,22116,-132,-217,-25,-0.517647,-0.85098,-0.098039,0,77,d4580,2026-05-22 02:37:55.102000+00:00,9.602,10.3,9.602,8691.5,20777.75,0.08348446900998935,0.022866220574784577,1.0008681344363002,0.0
2026-05-22T02:37:55.102+00:00,1779417475102297000,311,R,7573,7822,9083,10293,7573,7822,9083,10293,19156,23437,18411,22117,-131,-218,-25,-0.513725,-0.854902,-0.098039,0,77,e4580,2026-05-22 02:37:55.102000+00:00,9.602,10.333333333333334,9.602,8692.75,20780.25,0.09787834297722889,0.037308942110964013,1.0021888298868633,0.0013206954505631252
2026-05-22T02:37:55.398+00:00,1779417475398397000,312,R,7572,7823,9084,10293,7572,7823,9084,10293,19153,23435,18410,22113,-130,-217,-25,-0.509804,-0.85098,-0.098039,0,77,f4580,2026-05-22 02:37:55.398000+00:00,9.898,10.366666666666667,9.898,8693.0,20777.75,0.10363887609396591,0.028885385198647202,0.9968343515032977,-0.004033782933002494
2026-05-22T02:37:55.398+00:00,1779417475398435000,313,R,7572,7823,9081,10292,7572,7823,9081,10292,19155,23437,18411,22118,-129,-218,-26,-0.505882,-0.854902,-0.101961,0,77,04580,2026-05-22 02:37:55.398000+00:00,9.898,10.4,9.898,8692.0,20780.25,0.09500503814596228,0.04814578543830719,0.9985840340447069,-0.0022841003915933245
2026-05-22T02:37:55.398+00:00,1779417475398451000,314,R,7573,7823,9083,10294,7573,7823,9083,10294,19152,23439,18411,22118,-130,-217,-26,-0.509804,-0.85098,-0.101961,0,77,14580,2026-05-22 02:37:55.398000+00:00,9.898,10.433333333333334,9.898,8693.25,20780.0,0.10939974089535051,0.05416792055371652,0.9972277193986336,-0.0036404150376665445
2026-05-22T02:37:55.398+00:00,1779417475398465000,315,R,7577,7829,9084,10302,7577,7829,9084,10302,19156,23434,18416,22132,-131,-217,-26,-0.513725,-0.85098,-0.101961,0,77,84640,2026-05-22 02:37:55.398000+00:00,9.898,10.466666666666667,9.898,8698.0,20784.5,0.16409961134302575,0.0830634773501547,0.9992379003750809,-0.0016302340612193156
2026-05-22T02:37:55.398+00:00,1779417475398478000,316,R,7578,7831,9084,10301,7578,7831,9084,10301,19157,23438,18420,22127,-130,-219,-25,-0.509804,-0.858824,-0.098039,0,77,94640,2026-05-22 02:37:55.398000+00:00,9.898,10.5,9.898,8698.5,20785.5,0.16985749244278106,0.09028856224493481,1.0035389513681072,0.002924151122778218
2026-05-22T02:37:55.550+00:00,1779417475550796000,317,R,7581,7833,9086,10304,7581,7833,9086,10304,19161,23436,18423,22130,-132,-218,-25,-0.517647,-0.854902,-0.098039,0,77,a4640,2026-05-22 02:37:55.550000+00:00,10.05,10.533333333333333,10.05,8701.0,20787.5,0.19864689794155752,0.10112440709797028,1.0042049052529072,0.003336770816606993
2026-05-22T02:37:55.550+00:00,1779417475550925000,318,R,7579,7832,9085,10306,7579,7832,9085,10306,19158,23439,18421,22132,-132,-217,-26,-0.517647,-0.85098,-0.101961,0,77,b4640,2026-05-22 02:37:55.550000+00:00,10.05,10.566666666666666,10.05,8700.5,20787.5,0.1928890168418022,0.1023295009931981,1.0012599175688597,0.0003917831325594978
2026-05-22T02:37:55.550+00:00,1779417475550998000,319,R,7582,7832,9086,10308,7582,7832,9086,10308,19162,23435,18424,22137,-130,-219,-26,-0.509804,-0.858824,-0.101961,0,77,c4640,2026-05-22 02:37:55.550000+00:00,10.05,10.6,10.05,8702.0,20789.5,0.21593297440474477,0.11437101958754199,1.0039296922160437,0.0026697746471839867
2026-05-22T02:37:55.551+00:00,1779417475551066000,320,R,7570,7827,9079,10299,7570,7827,9079,10299,19151,23432,18418,22130,-131,-217,-26,-0.513725,-0.85098,-0.101961,0,76,44710,2026-05-22 02:37:55.551000+00:00,10.051,10.633333333333333,10.051,8693.75,20782.75,0.12092246566665707,0.09632635368628915,0.9992379003750809,-0.0020220171937788134
2026-05-22T02:37:55.551+00:00,1779417475551129000,321,R,7568,7824,9074,10296,7568,7824,9074,10296,19148,23427,18415,22125,-131,-219,-25,-0.513725,-0.858824,-0.098039,0,76,54710,2026-05-22 02:37:55.551000+00:00,10.051,10.666666666666666,10.051,8690.5,20778.75,0.0834940834365013,0.08188134429901141,1.005536515558734,0.004153558809918412
2026-05-22T02:37:55.551+00:00,1779417475551202000,322,R,7564,7824,9075,10291,7564,7824,9075,10291,19137,23422,18412,22119,-131,-220,-26,-0.513725,-0.862745,-0.101961,0,76,64710,2026-05-22 02:37:55.551000+00:00,10.051,10.7,10.051,8688.5,20772.5,0.06622325876018542,0.051777908894963094,1.0092761545637547,0.007893197814939246
2026-05-22T02:37:55.701+00:00,1779417475701206000,323,R,7558,7818,9071,10290,7558,7818,9071,10290,19136,23421,18410,22114,-128,-219,-26,-0.501961,-0.858824,-0.101961,0,76,74710,2026-05-22 02:37:55.701000+00:00,10.201,10.733333333333333,10.201,8684.25,20770.25,0.031676553590969304,0.04214531705319943,0.9999697765522717,-0.0014131801965437951
2026-05-22T02:37:55.701+00:00,1779417475701347000,324,R,7559,7818,9072,10286,7559,7818,9072,10286,19127,23418,18408,22112,-130,-217,-27,-0.509804,-0.85098,-0.105882,0,76,84710,2026-05-22 02:37:55.701000+00:00,10.201,10.766666666666667,10.201,8683.75,20766.25,0.025917180210793065,0.02890138606230657,0.9976362447004419,-0.004552585186421432
2026-05-22T02:37:55.701+00:00,1779417475701436000,325,R,7543,7807,9060,10271,7543,7807,9060,10271,19104,23405,18391,22091,-127,-221,-25,-0.498039,-0.866667,-0.098039,0,76,04780,2026-05-22 02:37:55.701000+00:00,10.201,10.8,10.201,8670.25,20747.75,-0.10657295927184746,-0.059007707129094415,1.0043735261002253,0.0021846962133620362
2026-05-22T02:37:55.701+00:00,1779417475701502000,326,R,7542,7806,9061,10268,7542,7806,9061,10268,19100,23402,18388,22092,-125,-220,-27,-0.490196,-0.862745,-0.105882,0,76,14780,2026-05-22 02:37:55.701000+00:00,10.201,10.833333333333334,10.201,8669.25,20745.5,-0.11521732868623441,-0.051791629027401385,0.9979138496709022,-0.004735219630515819
2026-05-22T02:37:55.701+00:00,1779417475701565000,327,R,7541,7801,9057,10268,7541,7801,9057,10268,19094,23397,18384,22088,-124,-221,-27,-0.486275,-0.866667,-0.105882,0,76,24780,2026-05-22 02:37:55.701000+00:00,10.201,10.866666666666667,10.201,8666.75,20740.75,-0.144021660857793,-0.06986184218450753,0.9993928469015575,-0.0027959829853058116
2026-05-22T02:37:55.850+00:00,1779417475851027000,328,R,7541,7802,9056,10266,7541,7802,9056,10266,19094,23392,18384,22086,-125,-220,-27,-0.490196,-0.862745,-0.105882,0,76,34780,2026-05-22 02:37:55.850000+00:00,10.35,10.9,10.35,8666.25,20739.0,-0.14402995823131212,-0.07708985786557455,0.9979138496709022,-0.0034691070779132582
2026-05-22T02:37:55.851+00:00,1779417475851168000,329,R,7534,7803,9054,10265,7534,7803,9054,10265,19092,23392,18383,22083,-126,-219,-26,-0.494118,-0.858824,-0.101961,0,76,44780,2026-05-22 02:37:55.851000+00:00,10.351,10.933333333333334,10.351,8664.0,20737.5,-0.16420361247947454,-0.08070636134767578,0.9960558751500842,-0.005204042418775479
2026-05-22T02:37:55.851+00:00,1779417475851242000,330,R,7526,7810,9051,10273,7526,7810,9051,10273,19073,23390,18400,22096,-128,-220,-26,-0.501961,-0.862745,-0.101961,0,76,c4850,2026-05-22 02:37:55.851000+00:00,10.351,10.966666666666667,10.351,8665.0,20739.75,-0.15268055195459915,-0.06745768836957176,1.00333933744621,0.002079419877350386
2026-05-22T02:37:55.851+00:00,1779417475851308000,331,R,7527,7812,9046,10273,7527,7812,9046,10273,19071,23387,18402,22096,-126,-218,-27,-0.494118,-0.854902,-0.105882,0,76,d4850,2026-05-22 02:37:55.851000+00:00,10.351,11.0,10.351,8664.5,20739.0,-0.15844208221703684,-0.05662445935689071,0.9930866152818697,-0.00817330228698998
2026-05-22T02:37:55.851+00:00,1779417475851372000,332,R,7526,7813,9047,10276,7526,7813,9047,10276,19072,23384,18401,22099,-129,-219,-28,-0.505882,-0.858824,-0.109804,0,76,e4850,2026-05-22 02:37:55.851000+00:00,10.351,11.033333333333333,10.351,8665.5,20739.0,-0.14691902169216145,-0.05662445935689071,1.0027722469813372,0.0015123294124774755
2026-05-22T02:37:56.146+00:00,1779417476146650000,333,R,7526,7814,9047,10278,7526,7814,9047,10278,19071,23384,18405,22101,-125,-219,-26,-0.490196,-0.858824,-0.101961,0,76,f4850,2026-05-22 02:37:56.146000+00:00,10.646,11.066666666666666,10.646,8666.25,20740.25,-0.10086455331412104,-0.036148498029906856,0.9941161033365268,-0.007143814232332901
2026-05-22T02:37:56.146+00:00,1779417476146683000,334,R,7527,7814,9049,10277,7527,7814,9049,10277,19071,23383,18405,22102,-123,-219,-27,-0.482353,-0.858824,-0.105882,0,76,04850,2026-05-22 02:37:56.146000+00:00,10.646,11.1,10.646,8666.75,20740.25,-0.06630152781781493,-0.03012556334803461,0.9906836414865242,-0.010699315262291287
2026-05-22T02:37:56.146+00:00,1779417476146699000,335,R,7528,7814,9048,10279,7528,7814,9048,10279,19072,23382,18409,22105,-135,-219,-25,-0.529412,-0.858824,-0.098039,0,76,14850,2026-05-22 02:37:56.146000+00:00,10.646,11.133333333333333,10.646,8667.25,20742.0,-0.05765516446135663,-0.019280825219319387,1.0136406534078042,0.011451823520940874
2026-05-22T02:37:56.146+00:00,1779417476146714000,336,R,7546,7807,9058,10274,7546,7807,9058,10274,19105,23390,18391,22098,-135,-221,-28,-0.529412,-0.866667,-0.109804,0,76,74900,2026-05-22 02:37:56.146000+00:00,10.646,11.166666666666666,10.646,8671.25,20746.0,-0.008648523985239853,0.0024101612397869417,1.0214918859437896,0.019303056056926282
2026-05-22T02:37:56.146+00:00,1779417476146728000,337,R,7547,7804,9058,10272,7547,7804,9058,10272,19106,23393,18384,22099,-128,-221,-28,-0.501961,-0.866667,-0.109804,0,76,84900,2026-05-22 02:37:56.146000+00:00,10.646,11.2,10.646,8670.25,20745.5,-0.02017988929889299,0.0,1.0075383133290763,0.005349483442212977
2026-05-22T02:37:56.153+00:00,1779417476153756000,338,R,7551,7804,9060,10275,7551,7804,9060,10275,19109,23389,18382,22097,-135,-225,-28,-0.529412,-0.882353,-0.109804,0,76,94900,2026-05-22 02:37:56.153000+00:00,10.653,11.233333333333333,10.653,8672.5,20744.25,0.005765682656826568,-0.006025403099467354,1.0348337068191198,0.032644876932256484
2026-05-22T02:37:56.153+00:00,1779417476153783000,339,R,7552,7803,9060,10273,7552,7803,9060,10273,19111,23390,18380,22094,-128,-223,-25,-0.501961,-0.87451,-0.098039,0,76,a4900,2026-05-22 02:37:56.153000+00:00,10.653,11.266666666666667,10.653,8672.0,20743.75,0.0,-0.008435564339254296,1.0130864874935408,0.011703530744725299
2026-05-22T02:37:56.153+00:00,1779417476153801000,340,R,7551,7801,9063,10274,7551,7801,9063,10274,19114,23394,18377,22095,-123,-219,-31,-0.482353,-0.858824,-0.121569,0,76,b4900,2026-05-22 02:37:56.153000+00:00,10.653,11.3,10.653,8672.25,20745.0,0.002882841328413284,-0.0024101612397869417,0.9924827964987605,-0.008777121070099203
2026-05-22T02:37:56.153+00:00,1779417476153814000,341,R,7553,7808,9077,10277,7553,7808,9077,10277,19111,23423,18379,22090,-132,-218,-23,-0.517647,-0.854902,-0.090196,0,76,24960,2026-05-22 02:37:56.153000+00:00,10.653,11.333333333333334,10.653,8678.75,20750.75,0.07783671586715867,0.02530669301776289,1.003469563379478,0.002086606630662402
2026-05-22T02:37:56.153+00:00,1779417476153827000,342,R,7553,7808,9081,10276,7553,7808,9081,10276,19110,23431,18385,22089,-133,-218,-23,-0.521569,-0.854902,-0.090196,0,76,34960,2026-05-22 02:37:56.153000+00:00,10.653,11.366666666666667,10.653,8679.5,20753.75,0.08648523985239852,0.03976766045648454,1.0054983688604373,0.004238451291577627
2026-05-22T02:37:56.153+00:00,1779417476153840000,343,R,7549,7807,9081,10276,7549,7807,9081,10276,19110,23433,18383,22091,-130,-217,-25,-0.509804,-0.85098,-0.098039,0,76,44960,2026-05-22 02:37:56.153000+00:00,10.653,11.4,10.653,8678.25,20754.25,0.0720710332103321,0.04217782169627148,0.9968343515032977,-0.004548605245517812
2026-05-22T02:37:56.301+00:00,1779417476301824000,344,R,7552,7809,9081,10284,7552,7809,9081,10284,19111,23432,18387,22091,-128,-217,-26,-0.501961,-0.85098,-0.101961,0,76,54960,2026-05-22 02:37:56.301000+00:00,10.801,11.433333333333334,10.801,8681.5,20755.25,0.1095479704797048,0.046998144175845365,0.9932410842499418,-0.00940798505147622
2026-05-22T02:37:56.301+00:00,1779417476301868000,345,R,7552,7812,9087,10280,7552,7812,9087,10280,19106,23435,18386,22093,-128,-217,-27,-0.501961,-0.85098,-0.105882,0,76,64960,2026-05-22 02:37:56.301000+00:00,10.801,11.466666666666667,10.801,8682.75,20755.0,0.12396217712177121,0.04579306355595189,0.9936512486003326,-0.009120998381004553
2026-05-22T02:37:56.301+00:00,1779417476301885000,346,R,7548,7820,9089,10290,7548,7820,9089,10290,19099,23445,18400,22103,-122,-222,-30,-0.478431,-0.870588,-0.117647,0,75,05050,2026-05-22 02:37:56.301000+00:00,10.801,11.5,10.801,8686.75,20761.75,0.17008763837638377,0.0783302402930756,1.0003301975417918,-0.0024420494395454018
2026-05-22T02:37:56.301+00:00,1779417476301899000,347,R,7541,7823,9084,10296,7541,7823,9084,10296,19093,23435,18398,22099,-125,-223,-29,-0.490196,-0.87451,-0.113725,0,75,15050,2026-05-22 02:37:56.301000+00:00,10.801,11.533333333333333,10.801,8686.0,20756.25,0.16143911439114392,0.05181846665541925,1.0089565075566935,0.006307438255275466
2026-05-22T02:37:56.301+00:00,1779417476301967000,348,R,7538,7818,9078,10283,7538,7818,9078,10283,19084,23423,18399,22097,-127,-222,-27,-0.498039,-0.870588,-0.105882,0,75,25050,2026-05-22 02:37:56.301000+00:00,10.801,11.566666666666666,10.801,8679.25,20750.75,0.08360239852398524,0.02530669301776289,1.0085520855112047,0.007169128762389176
2026-05-22T02:37:56.452+00:00,1779417476452440000,349,R,7537,7816,9066,10281,7537,7816,9066,10281,19080,23409,18400,22097,-127,-220,-26,-0.498039,-0.862745,-0.101961,0,75,35050,2026-05-22 02:37:56.452000+00:00,10.952,11.6,10.952,8675.0,20746.5,0.03459409594095941,0.004820322479573883,1.0013829567488155,0.0
2026-05-22T02:37:56.452+00:00,1779417476452584000,350,R,7533,7816,9058,10278,7533,7816,9058,10278,19074,23394,18395,22096,-125,-218,-25,-0.490196,-0.854902,-0.098039,0,75,45050,2026-05-22 02:37:56.452000+00:00,10.952,11.633333333333333,10.952,8671.25,20739.75,-0.008648523985239853,-0.02771685425754983,0.9903338798309387,-0.011049076917876821
2026-05-22T02:37:56.452+00:00,1779417476452662000,351,R,7547,7784,9004,10273,7547,7784,9004,10273,19102,23286,18353,22128,-137,-218,-30,-0.537255,-0.854902,-0.117647,0,75,c5120,2026-05-22 02:37:56.452000+00:00,10.952,11.666666666666666,10.952,8652.0,20717.25,-0.23062730627306274,-0.1361741100479622,1.016533905601776,0.013884836300357861
2026-05-22T02:37:56.452+00:00,1779417476452730000,352,R,7550,7777,9001,10265,7550,7777,9001,10265,19102,23280,18348,22124,-135,-220,-29,-0.529412,-0.862745,-0.113725,0,75,d5120,2026-05-22 02:37:56.452000+00:00,10.952,11.7,10.952,8648.25,20713.5,-0.273869926199262,-0.15425031934636427,1.0185967683013726,0.015947698999954518
2026-05-22T02:37:56.452+00:00,1779417476452795000,353,R,7550,7782,9007,10268,7550,7782,9007,10268,19108,23284,18347,22120,-134,-222,-30,-0.52549,-0.870588,-0.117647,0,75,e5120,2026-05-22 02:37:56.452000+00:00,10.952,11.733333333333333,10.952,8651.75,20714.75,-0.23063395508403725,-0.1482249162468969,1.0236718333787445,0.021022764077326395
2026-05-22T02:37:56.601+00:00,1779417476601458000,354,R,7549,7781,9011,10264,7549,7781,9011,10264,19105,23290,18341,22115,-131,-223,-29,-0.513725,-0.87451,-0.113725,0,75,f5120,2026-05-22 02:37:56.601000+00:00,11.101,11.766666666666667,11.101,8651.25,20712.75,-0.23064725385613377,-0.1554591467823572,1.0205951652589778,0.017822918277640598
2026-05-22T02:37:56.601+00:00,1779417476601522000,355,R,7548,7779,9019,10261,7548,7779,9019,10261,19107,23307,18343,22102,-127,-221,-30,-0.498039,-0.866667,-0.117647,0,75,05120,2026-05-22 02:37:56.601000+00:00,11.101,11.8,11.101,8651.75,20714.75,-0.22488107250973044,-0.14220808175759547,1.0064767016771923,0.003574499225726946
2026-05-22T02:37:56.601+00:00,1779417476601556000,356,R,7549,7779,9026,10259,7549,7779,9026,10259,19107,23324,18338,22091,-127,-220,-29,-0.498039,-0.862745,-0.113725,0,75,15120,2026-05-22 02:37:56.601000+00:00,11.101,11.833333333333334,11.101,8653.25,20715.0,-0.2075825284705204,-0.1385959626393492,1.002649069301418,-0.00012317767991909534
2026-05-22T02:37:56.601+00:00,1779417476601586000,357,R,7554,7785,9057,10259,7554,7785,9057,10259,19109,23378,18350,22083,-129,-219,-24,-0.505882,-0.858824,-0.094118,0,75,85180,2026-05-22 02:37:56.601000+00:00,11.101,11.866666666666667,11.101,8663.75,20730.0,-0.08649272019605017,-0.05785363031530229,1.001176037879453,-0.0015962091018841829
2026-05-22T02:37:56.601+00:00,1779417476601614000,358,R,7552,7787,9055,10261,7552,7787,9055,10261,19108,23383,18347,22077,-131,-217,-23,-0.513725,-0.85098,-0.090196,0,75,95180,2026-05-22 02:37:56.601000+00:00,11.101,11.9,11.101,8663.75,20728.75,-0.08649272019605017,-0.06388005013981295,0.9981060336662633,-0.004666213315073886
2026-05-22T02:37:56.900+00:00,1779417476900987000,359,R,7552,7786,9059,10257,7552,7786,9059,10257,19111,23382,18353,22080,-129,-218,-23,-0.505882,-0.854902,-0.090196,0,75,a5180,2026-05-22 02:37:56.900000+00:00,11.4,11.933333333333334,11.4,8663.5,20731.5,-0.08937581086925184,-0.050621926525889496,0.9974514253556411,-0.0054507770958242
2026-05-22T02:37:56.901+00:00,1779417476901147000,360,R,7553,7788,9061,10259,7553,7788,9061,10259,19111,23389,18351,22078,-131,-217,-23,-0.513725,-0.85098,-0.090196,0,75,b5180,2026-05-22 02:37:56.901000+00:00,11.401,11.966666666666667,11.401,8665.25,20732.25,-0.06919417615684013,-0.04700607463118311,0.9981060336662633,-0.00479616878520206
2026-05-22T02:37:56.901+00:00,1779417476901222000,361,R,7554,7787,9060,10261,7554,7787,9060,10261,19112,23389,18350,22079,-129,-216,-24,-0.505882,-0.847059,-0.094118,0,75,c5180,2026-05-22 02:37:56.901000+00:00,11.401,12.0,11.401,8665.5,20732.5,-0.06919218128351497,-0.045800790666280976,0.9911022880253078,-0.011669958956029403
