host_time_iso,host_time_unix_ns,sample_index,record_type,ir1,ir2,ir3,ir4,ir1_repeat,ir2_repeat,ir3_repeat,ir4_repeat,red1,red2,red3,red4,accel_x_raw,accel_y_raw,accel_z_raw,accel_x_g,accel_y_g,accel_z_g,reserved,heart_rate,debug
2026-05-18T04:12:08.888+00:00,1779077528889125000,1,R,8242,10045,9678,11372,8242,10045,9678,11372,23426,26764,23513,24003,-112,-231,12,-0.439216,-0.905882,0.047059,0,65,500
2026-05-18T04:12:08.890+00:00,1779077528890298000,2,R,8241,10041,9679,11372,8241,10041,9679,11372,23423,26759,23508,23997,-110,-230,13,-0.431373,-0.901961,0.05098,0,65,600
2026-05-18T04:12:08.890+00:00,1779077528890337000,3,R,8238,10039,9674,11361,8238,10039,9674,11361,23424,26754,23507,23991,-111,-229,12,-0.435294,-0.898039,0.047059,0,65,700
2026-05-18T04:12:08.890+00:00,1779077528890368000,4,R,8237,10037,9676,11360,8237,10037,9676,11360,23424,26756,23502,23986,-111,-228,12,-0.435294,-0.894118,0.047059,0,65,800
2026-05-18T04:12:08.890+00:00,1779077528890397000,5,R,8235,10034,9671,11356,8235,10034,9671,11356,23418,26754,23501,23984,-111,-228,13,-0.435294,-0.894118,0.05098,0,65,900
2026-05-18T04:12:08.890+00:00,1779077528890424000,6,R,8237,10030,9670,11353,8237,10030,9670,11353,23419,26751,23497,23982,-110,-229,12,-0.431373,-0.898039,0.047059,0,65,a00
2026-05-18T04:12:09.038+00:00,1779077529038287000,7,R,8235,10032,9670,11354,8235,10032,9670,11354,23419,26752,23500,23978,-112,-229,12,-0.439216,-0.898039,0.047059,0,65,b00
2026-05-18T04:12:09.038+00:00,1779077529038469000,8,R,8234,10030,9670,11350,8234,10030,9670,11350,23418,26746,23496,23981,-112,-229,12,-0.439216,-0.898039,0.047059,0,65,c00
2026-05-18T04:12:09.038+00:00,1779077529038557000,9,R,8233,10028,9668,11348,8233,10028,9668,11348,23415,26745,23489,23977,-112,-229,11,-0.439216,-0.898039,0.043137,0,65,d00
2026-05-18T04:12:09.038+00:00,1779077529038627000,10,R,8232,10030,9666,11346,8232,10030,9666,11346,23412,26744,23489,23972,-112,-229,12,-0.439216,-0.898039,0.047059,0,65,e00
2026-05-18T04:12:09.038+00:00,1779077529038695000,11,R,8229,10027,9664,11344,8229,10027,9664,11344,23413,26745,23492,23971,-111,-230,11,-0.435294,-0.901961,0.043137,0,65,f00
2026-05-18T04:12:09.188+00:00,1779077529188738000,12,R,8229,10025,9665,11345,8229,10025,9665,11345,23412,26744,23491,23971,-112,-229,11,-0.439216,-0.898039,0.043137,0,65,000
2026-05-18T04:12:09.188+00:00,1779077529188787000,13,R,8230,10029,9663,11350,8230,10029,9663,11350,23411,26741,23492,23969,-113,-230,11,-0.443137,-0.901961,0.043137,0,65,100
2026-05-18T04:12:09.188+00:00,1779077529188810000,14,R,8224,10026,9667,11346,8224,10026,9667,11346,23409,26741,23492,23965,-112,-229,11,-0.439216,-0.898039,0.043137,0,65,200
2026-05-18T04:12:09.188+00:00,1779077529188829000,15,R,8231,10024,9666,11341,8231,10024,9666,11341,23407,26739,23487,23968,-111,-229,11,-0.435294,-0.898039,0.043137,0,65,300
2026-05-18T04:12:09.188+00:00,1779077529188847000,16,R,8228,10026,9664,11341,8228,10026,9664,11341,23406,26740,23490,23967,-111,-229,12,-0.435294,-0.898039,0.047059,0,65,400
2026-05-18T04:12:09.337+00:00,1779077529337723000,17,R,8227,10025,9664,11345,8227,10025,9664,11345,23409,26739,23486,23968,-111,-229,10,-0.435294,-0.898039,0.039216,0,65,500
2026-05-18T04:12:09.337+00:00,1779077529337778000,18,R,8229,10025,9665,11341,8229,10025,9665,11341,23405,26741,23487,23967,-111,-229,12,-0.435294,-0.898039,0.047059,0,65,600
2026-05-18T04:12:09.337+00:00,1779077529337803000,19,R,8228,10026,9663,11342,8228,10026,9663,11342,23405,26738,23488,23969,-112,-228,11,-0.439216,-0.894118,0.043137,0,65,700
2026-05-18T04:12:09.337+00:00,1779077529337823000,20,R,8228,10026,9664,11340,8228,10026,9664,11340,23406,26740,23487,23965,-112,-230,11,-0.439216,-0.901961,0.043137,0,65,800
2026-05-18T04:12:09.337+00:00,1779077529337843000,21,R,8227,10025,9662,11340,8227,10025,9662,11340,23408,26737,23487,23967,-112,-231,11,-0.439216,-0.905882,0.043137,0,65,900
2026-05-18T04:12:09.489+00:00,1779077529489842000,22,R,8224,10024,9664,11343,8224,10024,9664,11343,23403,26732,23487,23958,-111,-231,11,-0.435294,-0.905882,0.043137,0,65,a00
2026-05-18T04:12:09.489+00:00,1779077529490010000,23,R,8228,10024,9663,11338,8228,10024,9663,11338,23405,26734,23490,23965,-111,-230,11,-0.435294,-0.901961,0.043137,0,65,b00
2026-05-18T04:12:09.490+00:00,1779077529490085000,24,R,8226,10023,9662,11341,8226,10023,9662,11341,23401,26730,23485,23965,-111,-230,11,-0.435294,-0.901961,0.043137,0,65,c00
2026-05-18T04:12:09.490+00:00,1779077529490151000,25,R,8225,10024,9663,11341,8225,10024,9663,11341,23405,26737,23486,23967,-111,-229,12,-0.435294,-0.898039,0.047059,0,65,d00
2026-05-18T04:12:09.490+00:00,1779077529490217000,26,R,8225,10023,9658,11335,8225,10023,9658,11335,23403,26735,23488,23962,-111,-229,10,-0.435294,-0.898039,0.039216,0,65,e00
2026-05-18T04:12:09.490+00:00,1779077529490280000,27,R,8225,10024,9663,11340,8225,10024,9663,11340,23401,26738,23484,23964,-111,-229,11,-0.435294,-0.898039,0.043137,0,65,f00
2026-05-18T04:12:09.638+00:00,1779077529638462000,28,R,8226,10024,9661,11338,8226,10024,9661,11338,23403,26732,23486,23962,-110,-229,12,-0.431373,-0.898039,0.047059,0,65,000
2026-05-18T04:12:09.638+00:00,1779077529638580000,29,R,8226,10024,9664,11341,8226,10024,9664,11341,23401,26736,23485,23961,-112,-229,11,-0.439216,-0.898039,0.043137,0,65,100
2026-05-18T04:12:09.638+00:00,1779077529638653000,30,R,8225,10026,9661,11342,8225,10026,9661,11342,23401,26737,23488,23962,-113,-230,11,-0.443137,-0.901961,0.043137,0,65,200
2026-05-18T04:12:09.638+00:00,1779077529638718000,31,R,8225,10023,9662,11339,8225,10023,9662,11339,23399,26732,23483,23961,-112,-230,11,-0.439216,-0.901961,0.043137,0,65,300
2026-05-18T04:12:09.638+00:00,1779077529638795000,32,R,8225,10025,9661,11341,8225,10025,9661,11341,23403,26737,23484,23962,-112,-230,11,-0.439216,-0.901961,0.043137,0,65,400
2026-05-18T04:12:09.789+00:00,1779077529789732000,33,R,8228,10026,9664,11340,8228,10026,9664,11340,23405,26739,23493,23964,-111,-229,12,-0.435294,-0.898039,0.047059,0,65,500
2026-05-18T04:12:09.789+00:00,1779077529789899000,34,R,8229,10034,9667,11352,8229,10034,9667,11352,23401,26739,23489,23964,-111,-229,12,-0.435294,-0.898039,0.047059,0,65,600
2026-05-18T04:12:09.789+00:00,1779077529789990000,35,R,8227,10027,9662,11345,8227,10027,9662,11345,23402,26741,23492,23967,-111,-229,12,-0.435294,-0.898039,0.047059,0,65,700
2026-05-18T04:12:09.790+00:00,1779077529790058000,36,R,8226,10029,9664,11344,8226,10029,9664,11344,23405,26737,23488,23964,-111,-229,12,-0.435294,-0.898039,0.047059,0,65,800
2026-05-18T04:12:09.790+00:00,1779077529790139000,37,R,8227,10027,9663,11343,8227,10027,9663,11343,23405,26739,23490,23965,-111,-229,13,-0.435294,-0.898039,0.05098,0,65,900
2026-05-18T04:12:10.085+00:00,1779077530085968000,38,R,8228,10034,9666,11349,8228,10034,9666,11349,23404,26735,23492,23966,-110,-228,13,-0.431373,-0.894118,0.05098,0,65,a00
2026-05-18T04:12:10.086+00:00,1779077530086049000,39,R,8226,10028,9665,11346,8226,10028,9665,11346,23405,26741,23493,23968,-111,-230,12,-0.435294,-0.901961,0.047059,0,65,b00
2026-05-18T04:12:10.086+00:00,1779077530086079000,40,R,8229,10028,9665,11347,8229,10028,9665,11347,23405,26739,23495,23971,-110,-230,13,-0.431373,-0.901961,0.05098,0,65,c00
2026-05-18T04:12:10.086+00:00,1779077530086105000,41,R,8230,10031,9666,11349,8230,10031,9666,11349,23404,26739,23492,23971,-111,-230,12,-0.435294,-0.901961,0.047059,0,65,d00
2026-05-18T04:12:10.086+00:00,1779077530086130000,42,R,8231,10031,9668,11348,8231,10031,9668,11348,23403,26739,23491,23968,-110,-231,12,-0.431373,-0.905882,0.047059,0,65,e00
2026-05-18T04:12:10.234+00:00,1779077530234634000,43,R,8228,10033,9666,11350,8228,10033,9666,11350,23408,26743,23496,23975,-110,-231,13,-0.431373,-0.905882,0.05098,0,65,f00
2026-05-18T04:12:10.234+00:00,1779077530234680000,44,R,8230,10034,9669,11351,8230,10034,9669,11351,23407,26743,23497,23972,-111,-230,12,-0.435294,-0.901961,0.047059,0,65,000
2026-05-18T04:12:10.234+00:00,1779077530234698000,45,R,8231,10032,9668,11351,8231,10032,9668,11351,23408,26743,23494,23971,-110,-230,12,-0.431373,-0.901961,0.047059,0,65,100
2026-05-18T04:12:10.234+00:00,1779077530234712000,46,R,8233,10033,9670,11353,8233,10033,9670,11353,23405,26741,23496,23972,-110,-230,12,-0.431373,-0.901961,0.047059,0,65,200
2026-05-18T04:12:10.234+00:00,1779077530234726000,47,R,8233,10034,9669,11353,8233,10034,9669,11353,23408,26738,23499,23976,-111,-230,12,-0.435294,-0.901961,0.047059,0,65,300
2026-05-18T04:12:10.234+00:00,1779077530234839000,48,R,8232,10036,9670,11355,8232,10036,9670,11355,23410,26744,23499,23972,-110,-231,13,-0.431373,-0.905882,0.05098,0,65,400
2026-05-18T04:12:10.386+00:00,1779077530386620000,49,R,8233,10037,9670,11355,8233,10037,9670,11355,23413,26749,23493,23977,-109,-230,12,-0.427451,-0.901961,0.047059,0,65,500
2026-05-18T04:12:10.386+00:00,1779077530386676000,50,R,8233,10037,9672,11356,8233,10037,9672,11356,23409,26745,23499,23982,-110,-231,13,-0.431373,-0.905882,0.05098,0,65,600
2026-05-18T04:12:10.386+00:00,1779077530386704000,51,R,8233,10037,9670,11356,8233,10037,9670,11356,23412,26749,23499,23983,-109,-230,12,-0.427451,-0.901961,0.047059,0,65,700
2026-05-18T04:12:10.386+00:00,1779077530386727000,52,R,8234,10037,9671,11358,8234,10037,9671,11358,23411,26746,23502,23978,-108,-230,13,-0.423529,-0.901961,0.05098,0,65,800
2026-05-18T04:12:10.386+00:00,1779077530386748000,53,R,8237,10035,9680,11359,8237,10035,9680,11359,23417,26747,23505,23984,-110,-230,12,-0.431373,-0.901961,0.047059,0,65,900
2026-05-18T04:12:10.836+00:00,1779077530836517000,54,R,8236,10037,9673,11358,8236,10037,9673,11358,23412,26750,23500,23982,-109,-230,12,-0.427451,-0.901961,0.047059,0,65,a00
2026-05-18T04:12:10.836+00:00,1779077530836555000,55,R,8235,10040,9672,11362,8235,10040,9672,11362,23410,26746,23501,23985,-109,-229,12,-0.427451,-0.898039,0.047059,0,65,b00
2026-05-18T04:12:10.836+00:00,1779077530836572000,56,R,8234,10037,9672,11361,8234,10037,9672,11361,23413,26751,23502,23984,-108,-231,13,-0.423529,-0.905882,0.05098,0,65,c00
2026-05-18T04:12:10.836+00:00,1779077530836586000,57,R,8235,10041,9673,11363,8235,10041,9673,11363,23412,26753,23503,23984,-109,-230,13,-0.427451,-0.901961,0.05098,0,65,d00
2026-05-18T04:12:10.836+00:00,1779077530836599000,58,R,8236,10040,9675,11364,8236,10040,9675,11364,23417,26752,23503,23986,-109,-230,13,-0.427451,-0.901961,0.05098,0,65,e00
2026-05-18T04:12:10.985+00:00,1779077530985408000,59,R,8238,10042,9675,11366,8238,10042,9675,11366,23414,26753,23507,23990,-110,-230,12,-0.431373,-0.901961,0.047059,0,65,f00
2026-05-18T04:12:10.985+00:00,1779077530985454000,60,R,8237,10042,9677,11365,8237,10042,9677,11365,23417,26753,23510,23993,-110,-229,14,-0.431373,-0.898039,0.054902,0,65,000
2026-05-18T04:12:10.985+00:00,1779077530985477000,61,R,8239,10042,9676,11370,8239,10042,9676,11370,23420,26752,23509,23995,-109,-229,13,-0.427451,-0.898039,0.05098,0,65,100
2026-05-18T04:12:10.985+00:00,1779077530985496000,62,R,8239,10043,9677,11367,8239,10043,9677,11367,23418,26757,23508,23994,-109,-229,13,-0.427451,-0.898039,0.05098,0,65,200
2026-05-18T04:12:10.985+00:00,1779077530985514000,63,R,8239,10044,9679,11367,8239,10044,9679,11367,23421,26754,23507,23992,-110,-231,12,-0.431373,-0.905882,0.047059,0,65,300
2026-05-18T04:12:11.136+00:00,1779077531136701000,64,R,8239,10045,9679,11372,8239,10045,9679,11372,23419,26759,23509,23992,-110,-230,12,-0.431373,-0.901961,0.047059,0,65,400
2026-05-18T04:12:11.136+00:00,1779077531136825000,65,R,8240,10045,9678,11371,8240,10045,9678,11371,23418,26756,23510,23999,-108,-231,11,-0.423529,-0.905882,0.043137,0,65,500
2026-05-18T04:12:11.136+00:00,1779077531136855000,66,R,8241,10045,9679,11372,8241,10045,9679,11372,23418,26758,23513,23999,-110,-231,11,-0.431373,-0.905882,0.043137,0,65,600
2026-05-18T04:12:11.136+00:00,1779077531136881000,67,R,8241,10047,9678,11371,8241,10047,9678,11371,23417,26757,23510,23998,-111,-230,11,-0.435294,-0.901961,0.043137,0,65,700
2026-05-18T04:12:11.136+00:00,1779077531136905000,68,R,8239,10044,9676,11372,8239,10044,9676,11372,23418,26755,23507,23993,-112,-231,12,-0.439216,-0.905882,0.047059,0,65,800
2026-05-18T04:12:11.136+00:00,1779077531136929000,69,R,8240,10042,9671,11360,8240,10042,9671,11360,23421,26751,23506,23991,-111,-231,11,-0.435294,-0.905882,0.043137,0,65,900
2026-05-18T04:12:11.286+00:00,1779077531286695000,70,R,8237,10040,9675,11364,8237,10040,9675,11364,23418,26749,23506,23989,-109,-231,10,-0.427451,-0.905882,0.039216,0,65,a00
2026-05-18T04:12:11.286+00:00,1779077531286752000,71,R,8236,10038,9673,11357,8236,10038,9673,11357,23415,26748,23499,23989,-110,-230,10,-0.431373,-0.901961,0.039216,0,65,b00
2026-05-18T04:12:11.286+00:00,1779077531286776000,72,R,8235,10036,9669,11355,8235,10036,9669,11355,23414,26747,23497,23983,-110,-230,11,-0.431373,-0.901961,0.043137,0,65,c00
2026-05-18T04:12:11.286+00:00,1779077531286797000,73,R,8234,10033,9669,11352,8234,10033,9669,11352,23413,26739,23492,23973,-110,-229,11,-0.431373,-0.898039,0.043137,0,65,d00
2026-05-18T04:12:11.286+00:00,1779077531286815000,74,R,8233,10030,9670,11350,8233,10030,9670,11350,23411,26740,23492,23976,-110,-229,10,-0.431373,-0.898039,0.039216,0,65,e00
2026-05-18T04:12:11.437+00:00,1779077531437386000,75,R,8233,10026,9674,11341,8233,10026,9674,11341,23410,26739,23489,23970,-109,-230,10,-0.427451,-0.901961,0.039216,0,65,f00
2026-05-18T04:12:11.437+00:00,1779077531437855000,76,R,8232,10026,9668,11346,8232,10026,9668,11346,23407,26737,23490,23969,-110,-230,10,-0.431373,-0.901961,0.039216,0,65,000
2026-05-18T04:12:11.437+00:00,1779077531437944000,77,R,8230,10028,9664,11343,8230,10028,9664,11343,23405,26734,23485,23964,-110,-231,11,-0.431373,-0.905882,0.043137,0,65,100
2026-05-18T04:12:11.438+00:00,1779077531438014000,78,R,8229,10023,9662,11342,8229,10023,9662,11342,23404,26733,23485,23967,-109,-230,11,-0.427451,-0.901961,0.043137,0,65,200
2026-05-18T04:12:11.438+00:00,1779077531438077000,79,R,8227,10025,9661,11340,8227,10025,9661,11340,23400,26734,23479,23965,-111,-231,10,-0.435294,-0.905882,0.039216,0,65,300
2026-05-18T04:12:11.586+00:00,1779077531586947000,80,R,8227,10024,9663,11337,8227,10024,9663,11337,23403,26734,23483,23964,-110,-230,10,-0.431373,-0.901961,0.039216,0,65,400
2026-05-18T04:12:11.587+00:00,1779077531587066000,81,R,8227,10024,9660,11339,8227,10024,9660,11339,23401,26732,23486,23963,-109,-230,11,-0.427451,-0.901961,0.043137,0,65,500
2026-05-18T04:12:11.587+00:00,1779077531587106000,82,R,8226,10021,9659,11336,8226,10021,9659,11336,23399,26731,23482,23960,-109,-230,11,-0.427451,-0.901961,0.043137,0,65,600
2026-05-18T04:12:11.587+00:00,1779077531587155000,83,R,8228,10021,9661,11336,8228,10021,9661,11336,23401,26727,23479,23960,-108,-230,11,-0.423529,-0.901961,0.043137,0,65,700
2026-05-18T04:12:11.587+00:00,1779077531587196000,84,R,8224,10019,9659,11340,8224,10019,9659,11340,23398,26727,23479,23958,-108,-230,11,-0.423529,-0.901961,0.043137,0,65,800
2026-05-18T04:12:11.735+00:00,1779077531735319000,85,R,8226,10023,9661,11337,8226,10023,9661,11337,23395,26729,23481,23957,-108,-230,9,-0.423529,-0.901961,0.035294,0,65,900
2026-05-18T04:12:11.735+00:00,1779077531735355000,86,R,8223,10019,9660,11336,8223,10019,9660,11336,23394,26726,23477,23955,-109,-230,10,-0.427451,-0.901961,0.039216,0,65,a00
2026-05-18T04:12:11.735+00:00,1779077531735371000,87,R,8227,10020,9659,11336,8227,10020,9659,11336,23398,26725,23478,23956,-109,-232,11,-0.427451,-0.909804,0.043137,0,65,b00
2026-05-18T04:12:11.735+00:00,1779077531735386000,88,R,8224,10024,9659,11336,8224,10024,9659,11336,23396,26723,23480,23959,-110,-232,10,-0.431373,-0.909804,0.039216,0,65,c00
2026-05-18T04:12:11.735+00:00,1779077531735399000,89,R,8223,10016,9659,11336,8223,10016,9659,11336,23396,26721,23479,23957,-111,-231,10,-0.435294,-0.905882,0.039216,0,65,d00
2026-05-18T04:12:11.735+00:00,1779077531735413000,90,R,8223,10021,9657,11332,8223,10021,9657,11332,23396,26722,23481,23953,-109,-230,10,-0.427451,-0.901961,0.039216,0,65,e00
2026-05-18T04:12:11.887+00:00,1779077531887433000,91,R,8225,10020,9658,11337,8225,10020,9658,11337,23398,26724,23476,23955,-110,-229,10,-0.431373,-0.898039,0.039216,0,65,f00
2026-05-18T04:12:11.887+00:00,1779077531887467000,92,R,8223,10021,9658,11334,8223,10021,9658,11334,23398,26721,23481,23953,-109,-229,11,-0.427451,-0.898039,0.043137,0,65,000
2026-05-18T04:12:11.887+00:00,1779077531887484000,93,R,8223,10018,9659,11334,8223,10018,9659,11334,23394,26721,23474,23950,-109,-230,10,-0.427451,-0.901961,0.039216,0,65,100
2026-05-18T04:12:11.887+00:00,1779077531887498000,94,R,8223,10016,9657,11332,8223,10016,9657,11332,23393,26723,23474,23951,-109,-230,10,-0.427451,-0.901961,0.039216,0,65,200
2026-05-18T04:12:11.887+00:00,1779077531887510000,95,R,8224,10019,9657,11331,8224,10019,9657,11331,23393,26719,23473,23953,-108,-230,11,-0.423529,-0.901961,0.043137,0,65,300
2026-05-18T04:12:12.037+00:00,1779077532037413000,96,R,8221,10018,9655,11334,8221,10018,9655,11334,23393,26723,23472,23950,-109,-231,11,-0.427451,-0.905882,0.043137,0,65,400
2026-05-18T04:12:12.037+00:00,1779077532037448000,97,R,8222,10020,9657,11334,8222,10020,9657,11334,23393,26722,23476,23950,-109,-231,11,-0.427451,-0.905882,0.043137,0,65,500
2026-05-18T04:12:12.037+00:00,1779077532037464000,98,R,8222,10020,9657,11336,8222,10020,9657,11336,23396,26721,23475,23951,-110,-231,10,-0.431373,-0.905882,0.039216,0,65,600
2026-05-18T04:12:12.037+00:00,1779077532037483000,99,R,8223,10019,9658,11333,8223,10019,9658,11333,23393,26722,23477,23953,-110,-230,10,-0.431373,-0.901961,0.039216,0,65,700
2026-05-18T04:12:12.037+00:00,1779077532037496000,100,R,8223,10017,9658,11332,8223,10017,9658,11332,23393,26720,23478,23950,-110,-230,10,-0.431373,-0.901961,0.039216,0,65,800
2026-05-18T04:12:12.187+00:00,1779077532187647000,101,R,8224,10020,9657,11334,8224,10020,9657,11334,23392,26725,23478,23955,-109,-230,10,-0.427451,-0.901961,0.039216,0,65,900
2026-05-18T04:12:12.187+00:00,1779077532187694000,102,R,8223,10018,9658,11334,8223,10018,9658,11334,23392,26721,23481,23956,-109,-230,10,-0.427451,-0.901961,0.039216,0,65,a00
2026-05-18T04:12:12.187+00:00,1779077532187710000,103,R,8225,10024,9657,11333,8225,10024,9657,11333,23390,26719,23479,23954,-110,-230,11,-0.431373,-0.901961,0.043137,0,65,b00
2026-05-18T04:12:12.187+00:00,1779077532187724000,104,R,8245,10027,9693,11347,8245,10027,9693,11347,23424,26800,23463,23958,-119,-226,15,-0.466667,-0.886275,0.058824,0,64,e2420
2026-05-18T04:12:12.187+00:00,1779077532187740000,105,R,8246,10026,9694,11351,8246,10026,9694,11351,23425,26798,23464,23959,-117,-226,17,-0.458824,-0.886275,0.066667,0,64,f2420
2026-05-18T04:12:12.337+00:00,1779077532337499000,106,R,8246,10026,9697,11350,8246,10026,9697,11350,23428,26798,23465,23959,-118,-225,17,-0.462745,-0.882353,0.066667,0,64,02420
2026-05-18T04:12:12.337+00:00,1779077532337537000,107,R,8246,10025,9695,11355,8246,10025,9695,11355,23425,26796,23464,23959,-118,-225,16,-0.462745,-0.882353,0.062745,0,64,12420
2026-05-18T04:12:12.337+00:00,1779077532337553000,108,R,8247,10028,9694,11353,8247,10028,9694,11353,23428,26804,23466,23965,-117,-225,16,-0.458824,-0.882353,0.062745,0,64,22420
2026-05-18T04:12:12.337+00:00,1779077532337567000,109,R,8253,10034,9699,11363,8253,10034,9699,11363,23434,26808,23473,23974,-118,-227,15,-0.462745,-0.890196,0.058824,0,64,92480
2026-05-18T04:12:12.337+00:00,1779077532337579000,110,R,8254,10033,9699,11371,8254,10033,9699,11371,23433,26807,23470,23975,-118,-227,15,-0.462745,-0.890196,0.058824,0,64,a2480
2026-05-18T04:12:12.337+00:00,1779077532337592000,111,R,8252,10032,9700,11363,8252,10032,9700,11363,23432,26806,23474,23980,-117,-227,14,-0.458824,-0.890196,0.054902,0,64,b2480
2026-05-18T04:12:12.488+00:00,1779077532488369000,112,R,8249,10031,9699,11365,8249,10031,9699,11365,23434,26805,23476,23976,-119,-227,15,-0.466667,-0.890196,0.058824,0,64,c2480
2026-05-18T04:12:12.488+00:00,1779077532488521000,113,R,8252,10033,9700,11364,8252,10033,9700,11364,23431,26801,23475,23978,-119,-227,15,-0.466667,-0.890196,0.058824,0,64,d2480
2026-05-18T04:12:12.488+00:00,1779077532488597000,114,R,8247,10017,9688,11341,8247,10017,9688,11341,23423,26786,23454,23955,-115,-226,16,-0.45098,-0.886275,0.062745,0,64,42540
2026-05-18T04:12:12.488+00:00,1779077532488664000,115,R,8244,10018,9686,11340,8244,10018,9686,11340,23422,26783,23458,23950,-116,-227,16,-0.454902,-0.890196,0.062745,0,64,52540
2026-05-18T04:12:12.488+00:00,1779077532488729000,116,R,8244,10014,9686,11330,8244,10014,9686,11330,23420,26782,23452,23951,-115,-227,16,-0.45098,-0.890196,0.062745,0,64,62540
2026-05-18T04:12:12.638+00:00,1779077532638458000,117,R,8242,10015,9683,11337,8242,10015,9683,11337,23418,26777,23451,23950,-116,-227,16,-0.454902,-0.890196,0.062745,0,64,72540
2026-05-18T04:12:12.638+00:00,1779077532638585000,118,R,8244,10016,9685,11339,8244,10016,9685,11339,23418,26777,23452,23948,-116,-227,15,-0.454902,-0.890196,0.058824,0,64,82540
2026-05-18T04:12:12.638+00:00,1779077532638664000,119,R,8238,10013,9680,11331,8238,10013,9680,11331,23412,26769,23450,23946,-116,-227,15,-0.454902,-0.890196,0.058824,0,64,02610
2026-05-18T04:12:12.638+00:00,1779077532638737000,120,R,8236,10011,9679,11331,8236,10011,9679,11331,23410,26769,23444,23943,-117,-227,15,-0.458824,-0.890196,0.058824,0,64,12610
2026-05-18T04:12:12.638+00:00,1779077532638801000,121,R,8236,10010,9673,11333,8236,10010,9673,11333,23411,26769,23445,23941,-118,-228,15,-0.462745,-0.894118,0.058824,0,64,22610
2026-05-18T04:12:12.936+00:00,1779077532936606000,122,R,8238,10011,9680,11330,8238,10011,9680,11330,23407,26768,23446,23941,-117,-228,14,-0.458824,-0.894118,0.054902,0,64,32610
2026-05-18T04:12:12.936+00:00,1779077532936767000,123,R,8237,10011,9676,11329,8237,10011,9676,11329,23406,26767,23442,23941,-116,-228,15,-0.454902,-0.894118,0.058824,0,64,42610
2026-05-18T04:12:12.936+00:00,1779077532936792000,124,R,8235,10012,9677,11331,8235,10012,9677,11331,23409,26766,23443,23937,-115,-227,15,-0.45098,-0.890196,0.058824,0,64,c2680
2026-05-18T04:12:12.936+00:00,1779077532936810000,125,R,8238,10011,9677,11332,8238,10011,9677,11332,23411,26763,23447,23940,-116,-226,15,-0.454902,-0.886275,0.058824,0,64,d2680
2026-05-18T04:12:12.936+00:00,1779077532936826000,126,R,8236,10010,9678,11331,8236,10010,9678,11331,23407,26766,23446,23939,-118,-225,16,-0.462745,-0.882353,0.062745,0,64,e2680
2026-05-18T04:12:13.085+00:00,1779077533085432000,127,R,8237,10013,9680,11331,8237,10013,9680,11331,23408,26762,23446,23943,-118,-226,16,-0.462745,-0.886275,0.062745,0,64,f2680
2026-05-18T04:12:13.085+00:00,1779077533085499000,128,R,8236,10010,9673,11329,8236,10010,9673,11329,23408,26765,23447,23938,-117,-226,15,-0.458824,-0.886275,0.058824,0,64,02680
2026-05-18T04:12:13.085+00:00,1779077533085533000,129,R,8237,10013,9682,11337,8237,10013,9682,11337,23411,26767,23449,23948,-117,-227,15,-0.458824,-0.890196,0.058824,0,63,82750
2026-05-18T04:12:13.085+00:00,1779077533085562000,130,R,8238,10015,9681,11337,8238,10015,9681,11337,23412,26770,23449,23950,-118,-226,15,-0.462745,-0.886275,0.058824,0,63,92750
2026-05-18T04:12:13.085+00:00,1779077533085588000,131,R,8238,10017,9682,11340,8238,10017,9682,11340,23412,26766,23451,23951,-118,-226,16,-0.462745,-0.886275,0.062745,0,63,a2750
2026-05-18T04:12:13.234+00:00,1779077533234770000,132,R,8241,10017,9682,11341,8241,10017,9682,11341,23416,26764,23453,23952,-119,-225,16,-0.466667,-0.882353,0.062745,0,63,b2750
2026-05-18T04:12:13.234+00:00,1779077533234871000,133,R,8240,10023,9682,11352,8240,10023,9682,11352,23413,26767,23454,23949,-118,-225,15,-0.462745,-0.882353,0.058824,0,63,c2750
2026-05-18T04:12:13.234+00:00,1779077533234911000,134,R,8240,10019,9681,11343,8240,10019,9681,11343,23414,26770,23453,23955,-119,-226,16,-0.466667,-0.886275,0.062745,0,63,d2750
2026-05-18T04:12:13.234+00:00,1779077533234946000,135,R,8245,10024,9685,11350,8245,10024,9685,11350,23419,26769,23456,23962,-118,-223,17,-0.462745,-0.87451,0.066667,0,63,42810
2026-05-18T04:12:13.234+00:00,1779077533234979000,136,R,8244,10021,9682,11351,8244,10021,9682,11351,23417,26769,23461,23961,-118,-225,17,-0.462745,-0.882353,0.066667,0,63,52810
2026-05-18T04:12:13.384+00:00,1779077533384833000,137,R,8243,10022,9685,11353,8243,10022,9685,11353,23421,26768,23460,23966,-119,-224,17,-0.466667,-0.878431,0.066667,0,63,62810
2026-05-18T04:12:13.384+00:00,1779077533384896000,138,R,8244,10025,9684,11352,8244,10025,9684,11352,23420,26768,23458,23964,-118,-225,16,-0.462745,-0.882353,0.062745,0,63,72810
2026-05-18T04:12:13.384+00:00,1779077533384923000,139,R,8244,10025,9682,11354,8244,10025,9682,11354,23418,26763,23456,23962,-119,-225,15,-0.466667,-0.882353,0.058824,0,63,82810
2026-05-18T04:12:13.384+00:00,1779077533384945000,140,R,8244,10030,9665,11370,8244,10030,9665,11370,23418,26722,23464,23986,-121,-223,16,-0.47451,-0.87451,0.062745,0,63,02880
2026-05-18T04:12:13.384+00:00,1779077533384966000,141,R,8243,10029,9664,11372,8243,10029,9664,11372,23415,26719,23458,23988,-121,-222,18,-0.47451,-0.870588,0.070588,0,63,12880
2026-05-18T04:12:13.682+00:00,1779077533682960000,142,R,8242,10027,9663,11372,8242,10027,9663,11372,23417,26711,23459,23992,-121,-223,17,-0.47451,-0.87451,0.066667,0,63,22880
2026-05-18T04:12:13.683+00:00,1779077533683118000,143,R,8240,10030,9656,11366,8240,10030,9656,11366,23415,26704,23461,23993,-121,-223,17,-0.47451,-0.87451,0.066667,0,63,32880
2026-05-18T04:12:13.683+00:00,1779077533683193000,144,R,8243,10030,9657,11373,8243,10030,9657,11373,23416,26701,23462,23996,-119,-224,17,-0.466667,-0.878431,0.066667,0,63,42880
2026-05-18T04:12:13.683+00:00,1779077533683365000,145,R,8235,10016,9640,11358,8235,10016,9640,11358,23397,26667,23439,23988,-120,-223,16,-0.470588,-0.87451,0.062745,0,63,c2950
2026-05-18T04:12:13.683+00:00,1779077533683744000,146,R,8235,10011,9642,11357,8235,10011,9642,11357,23401,26668,23433,23982,-120,-223,16,-0.470588,-0.87451,0.062745,0,63,d2950
2026-05-18T04:12:13.683+00:00,1779077533683830000,147,R,8234,10012,9645,11355,8234,10012,9645,11355,23396,26680,23436,23980,-120,-223,17,-0.470588,-0.87451,0.066667,0,63,e2950
2026-05-18T04:12:13.688+00:00,1779077533688097000,148,R,8234,10008,9646,11354,8234,10008,9646,11354,23401,26686,23433,23977,-121,-224,17,-0.47451,-0.878431,0.066667,0,63,f2950
2026-05-18T04:12:13.688+00:00,1779077533688145000,149,R,8234,10011,9647,11351,8234,10011,9647,11351,23401,26684,23434,23974,-121,-224,16,-0.47451,-0.878431,0.062745,0,63,02950
2026-05-18T04:12:13.688+00:00,1779077533688173000,150,R,8235,10005,9658,11343,8235,10005,9658,11343,23408,26715,23426,23961,-119,-224,17,-0.466667,-0.878431,0.066667,0,63,83020
2026-05-18T04:12:13.688+00:00,1779077533688405000,151,R,8236,10006,9659,11342,8236,10006,9659,11342,23408,26716,23429,23959,-118,-225,17,-0.462745,-0.882353,0.066667,0,63,93020
2026-05-18T04:12:13.688+00:00,1779077533688433000,152,R,8238,10005,9659,11343,8238,10005,9659,11343,23411,26724,23428,23961,-121,-225,18,-0.47451,-0.882353,0.070588,0,63,a3020
2026-05-18T04:12:13.837+00:00,1779077533837690000,153,R,8238,10009,9663,11345,8238,10009,9663,11345,23407,26725,23431,23960,-119,-225,17,-0.466667,-0.882353,0.066667,0,63,b3020
2026-05-18T04:12:13.837+00:00,1779077533837733000,154,R,8239,10006,9665,11343,8239,10006,9665,11343,23410,26727,23431,23962,-121,-224,18,-0.47451,-0.878431,0.070588,0,63,c3020
2026-05-18T04:12:13.837+00:00,1779077533837753000,155,R,8240,10004,9666,11342,8240,10004,9666,11342,23414,26738,23425,23954,-119,-224,17,-0.466667,-0.878431,0.066667,0,63,33080
2026-05-18T04:12:13.837+00:00,1779077533837769000,156,R,8239,10004,9666,11340,8239,10004,9666,11340,23412,26738,23427,23956,-120,-224,16,-0.470588,-0.878431,0.062745,0,63,43080
2026-05-18T04:12:13.837+00:00,1779077533837785000,157,R,8240,10005,9666,11340,8240,10005,9666,11340,23411,26741,23427,23956,-120,-225,17,-0.470588,-0.882353,0.066667,0,63,53080
2026-05-18T04:12:14.134+00:00,1779077534134792000,158,R,8239,10005,9666,11340,8239,10005,9666,11340,23412,26744,23424,23958,-122,-225,17,-0.478431,-0.882353,0.066667,0,63,63080
2026-05-18T04:12:14.134+00:00,1779077534134831000,159,R,8240,10003,9667,11340,8240,10003,9667,11340,23417,26744,23430,23960,-120,-225,17,-0.470588,-0.882353,0.066667,0,63,73080
2026-05-18T04:12:14.134+00:00,1779077534134848000,160,R,8240,10008,9675,11352,8240,10008,9675,11352,23418,26753,23430,23962,-119,-225,17,-0.466667,-0.882353,0.066667,0,63,e3140
2026-05-18T04:12:14.134+00:00,1779077534134862000,161,R,8238,10008,9666,11343,8238,10008,9666,11343,23415,26753,23431,23964,-119,-227,17,-0.466667,-0.890196,0.066667,0,63,f3140
2026-05-18T04:12:14.134+00:00,1779077534134877000,162,R,8243,10008,9674,11348,8243,10008,9674,11348,23415,26749,23434,23962,-118,-226,17,-0.462745,-0.886275,0.066667,0,63,03140
2026-05-18T04:12:14.433+00:00,1779077534433907000,163,R,8243,10009,9675,11349,8243,10009,9675,11349,23418,26753,23430,23965,-118,-227,17,-0.462745,-0.890196,0.066667,0,63,13140
2026-05-18T04:12:14.434+00:00,1779077534434074000,164,R,8243,10009,9675,11349,8243,10009,9675,11349,23421,26759,23434,23963,-117,-227,17,-0.458824,-0.890196,0.066667,0,63,23140
2026-05-18T04:12:14.434+00:00,1779077534434147000,165,R,8243,10012,9677,11350,8243,10012,9677,11350,23419,26760,23433,23964,-118,-228,17,-0.462745,-0.894118,0.066667,0,63,33140
2026-05-18T04:12:14.434+00:00,1779077534434221000,166,R,8248,10015,9683,11354,8248,10015,9683,11354,23425,26773,23441,23971,-127,-222,17,-0.498039,-0.870588,0.066667,0,63,93190
2026-05-18T04:12:14.434+00:00,1779077534434286000,167,R,8248,10015,9687,11357,8248,10015,9687,11357,23424,26770,23439,23967,-128,-221,18,-0.501961,-0.866667,0.070588,0,63,a3190
2026-05-18T04:12:14.440+00:00,1779077534440362000,168,R,8251,10021,9688,11358,8251,10021,9688,11358,23425,26773,23439,23968,-126,-222,19,-0.494118,-0.870588,0.07451,0,63,b3190
2026-05-18T04:12:14.440+00:00,1779077534440445000,169,R,8251,10017,9686,11358,8251,10017,9686,11358,23427,26780,23442,23970,-123,-222,19,-0.482353,-0.870588,0.07451,0,63,c3190
2026-05-18T04:12:14.440+00:00,1779077534440510000,170,R,8249,10017,9689,11357,8249,10017,9689,11357,23429,26777,23443,23974,-122,-221,19,-0.478431,-0.866667,0.07451,0,63,d3190
2026-05-18T04:12:14.440+00:00,1779077534440572000,171,R,8253,10025,9690,11367,8253,10025,9690,11367,23433,26784,23451,23983,-120,-224,17,-0.470588,-0.878431,0.066667,0,63,53260
2026-05-18T04:12:14.440+00:00,1779077534440635000,172,R,8254,10022,9696,11369,8254,10022,9696,11369,23434,26784,23451,23986,-121,-224,16,-0.47451,-0.878431,0.062745,0,63,63260
2026-05-18T04:12:14.590+00:00,1779077534590378000,173,R,8253,10028,9694,11369,8253,10028,9694,11369,23433,26786,23452,23986,-123,-225,16,-0.482353,-0.882353,0.062745,0,63,73260
2026-05-18T04:12:14.590+00:00,1779077534590526000,174,R,8256,10029,9696,11372,8256,10029,9696,11372,23436,26789,23453,23989,-124,-224,17,-0.486275,-0.878431,0.066667,0,63,83260
2026-05-18T04:12:14.590+00:00,1779077534590606000,175,R,8254,10029,9694,11372,8254,10029,9694,11372,23436,26786,23456,23992,-124,-223,16,-0.486275,-0.87451,0.062745,0,63,93260
2026-05-18T04:12:14.590+00:00,1779077534590675000,176,R,8258,10030,9697,11378,8258,10030,9697,11378,23442,26796,23455,23999,-119,-224,16,-0.466667,-0.878431,0.062745,0,63,03320
2026-05-18T04:12:14.590+00:00,1779077534590739000,177,R,8259,10029,9696,11378,8259,10029,9696,11378,23437,26789,23457,23995,-121,-225,17,-0.47451,-0.882353,0.066667,0,63,13320
2026-05-18T04:12:14.590+00:00,1779077534590803000,178,R,8260,10029,9694,11372,8260,10029,9694,11372,23435,26793,23451,23991,-121,-226,17,-0.47451,-0.886275,0.066667,0,63,23320
2026-05-18T04:12:14.888+00:00,1779077534888928000,179,R,8258,10026,9694,11368,8258,10026,9694,11368,23435,26789,23449,23990,-122,-226,18,-0.478431,-0.886275,0.070588,0,63,33320
2026-05-18T04:12:14.889+00:00,1779077534889096000,180,R,8256,10024,9690,11364,8256,10024,9690,11364,23436,26788,23449,23983,-120,-225,18,-0.470588,-0.882353,0.070588,0,63,43320
2026-05-18T04:12:14.889+00:00,1779077534889170000,181,R,8248,10013,9688,11350,8248,10013,9688,11350,23426,26776,23440,23966,-123,-224,18,-0.482353,-0.878431,0.070588,0,63,b3380
2026-05-18T04:12:14.889+00:00,1779077534889237000,182,R,8248,10012,9686,11347,8248,10012,9686,11347,23421,26773,23437,23966,-123,-223,17,-0.482353,-0.87451,0.066667,0,63,c3380
2026-05-18T04:12:14.889+00:00,1779077534889302000,183,R,8247,10011,9686,11347,8247,10011,9686,11347,23423,26774,23435,23959,-123,-223,17,-0.482353,-0.87451,0.066667,0,63,d3380
2026-05-18T04:12:15.039+00:00,1779077535039563000,184,R,8246,10009,9684,11344,8246,10009,9684,11344,23425,26775,23433,23958,-123,-224,18,-0.482353,-0.878431,0.070588,0,63,e3380
2026-05-18T04:12:15.039+00:00,1779077535039726000,185,R,8245,10011,9684,11341,8245,10011,9684,11341,23419,26770,23431,23956,-120,-224,17,-0.470588,-0.878431,0.066667,0,63,f3380
2026-05-18T04:12:15.039+00:00,1779077535039801000,186,R,8246,10011,9684,11342,8246,10011,9684,11342,23418,26772,23429,23954,-122,-224,19,-0.478431,-0.878431,0.07451,0,63,63440
2026-05-18T04:12:15.039+00:00,1779077535039866000,187,R,8243,10007,9683,11344,8243,10007,9683,11344,23415,26778,23431,23957,-120,-224,19,-0.470588,-0.878431,0.07451,0,63,73440
2026-05-18T04:12:15.039+00:00,1779077535039929000,188,R,8242,10007,9677,11337,8242,10007,9677,11337,23416,26773,23429,23955,-120,-225,19,-0.470588,-0.882353,0.07451,0,63,83440
2026-05-18T04:12:15.333+00:00,1779077535333089000,189,R,8243,10008,9682,11343,8243,10008,9682,11343,23417,26776,23427,23951,-120,-225,17,-0.470588,-0.882353,0.066667,0,63,93440
2026-05-18T04:12:15.333+00:00,1779077535333155000,190,R,8242,10011,9684,11341,8242,10011,9684,11341,23415,26775,23425,23951,-120,-225,17,-0.470588,-0.882353,0.066667,0,63,a3440
2026-05-18T04:12:15.333+00:00,1779077535333182000,191,R,8243,10011,9685,11344,8243,10011,9685,11344,23417,26778,23432,23952,-123,-224,18,-0.482353,-0.878431,0.070588,0,64,33520
2026-05-18T04:12:15.333+00:00,1779077535333206000,192,R,8245,10012,9687,11345,8245,10012,9687,11345,23416,26787,23432,23952,-124,-224,19,-0.486275,-0.878431,0.07451,0,64,43520
2026-05-18T04:12:15.333+00:00,1779077535333228000,193,R,8244,10014,9688,11344,8244,10014,9688,11344,23418,26784,23433,23954,-124,-223,19,-0.486275,-0.87451,0.07451,0,64,53520
2026-05-18T04:12:15.339+00:00,1779077535339984000,194,R,8246,10011,9691,11347,8246,10011,9691,11347,23416,26785,23436,23956,-122,-222,19,-0.478431,-0.870588,0.07451,0,64,63520
2026-05-18T04:12:15.340+00:00,1779077535340017000,195,R,8246,10012,9690,11347,8246,10012,9690,11347,23419,26789,23432,23955,-121,-222,19,-0.47451,-0.870588,0.07451,0,64,73520
2026-05-18T04:12:15.340+00:00,1779077535340043000,196,R,8249,10016,9691,11350,8249,10016,9691,11350,23422,26791,23442,23964,-120,-224,19,-0.470588,-0.878431,0.07451,0,64,d3570
2026-05-18T04:12:15.340+00:00,1779077535340069000,197,R,8248,10020,9695,11354,8248,10020,9695,11354,23419,26792,23442,23964,-121,-223,19,-0.47451,-0.87451,0.07451,0,64,e3570
2026-05-18T04:12:15.340+00:00,1779077535340198000,198,R,8248,10015,9694,11352,8248,10015,9694,11352,23423,26792,23437,23962,-123,-223,18,-0.482353,-0.87451,0.070588,0,64,f3570
2026-05-18T04:12:15.637+00:00,1779077535637888000,199,R,8250,10019,9694,11353,8250,10019,9694,11353,23420,26793,23439,23964,-122,-223,19,-0.478431,-0.87451,0.07451,0,64,03570
2026-05-18T04:12:15.637+00:00,1779077535637999000,200,R,8249,10019,9693,11356,8249,10019,9693,11356,23423,26792,23441,23962,-122,-223,19,-0.478431,-0.87451,0.07451,0,64,13570
2026-05-18T04:12:15.638+00:00,1779077535638072000,201,R,8249,10021,9695,11356,8249,10021,9695,11356,23422,26793,23438,23965,-122,-225,18,-0.478431,-0.882353,0.070588,0,64,23570
2026-05-18T04:12:15.638+00:00,1779077535638137000,202,R,8253,10027,9702,11366,8253,10027,9702,11366,23429,26800,23447,23974,-124,-223,18,-0.486275,-0.87451,0.070588,0,64,a3640
2026-05-18T04:12:15.638+00:00,1779077535638233000,203,R,8252,10027,9698,11364,8252,10027,9698,11364,23434,26803,23452,23974,-122,-223,17,-0.478431,-0.87451,0.066667,0,64,b3640
2026-05-18T04:12:15.788+00:00,1779077535788172000,204,R,8255,10026,9703,11369,8255,10026,9703,11369,23433,26804,23454,23981,-122,-224,17,-0.478431,-0.878431,0.066667,0,64,c3640
2026-05-18T04:12:15.788+00:00,1779077535788286000,205,R,8256,10027,9701,11369,8256,10027,9701,11369,23431,26797,23453,23976,-121,-224,16,-0.47451,-0.878431,0.062745,0,64,d3640
2026-05-18T04:12:15.788+00:00,1779077535788357000,206,R,8255,10031,9702,11371,8255,10031,9702,11371,23427,26803,23453,23982,-123,-225,17,-0.482353,-0.882353,0.066667,0,64,e3640
2026-05-18T04:12:15.788+00:00,1779077535788424000,207,R,8258,10036,9706,11377,8258,10036,9706,11377,23433,26805,23459,23988,-118,-225,19,-0.462745,-0.882353,0.07451,0,64,43690
2026-05-18T04:12:15.788+00:00,1779077535788488000,208,R,8262,10036,9705,11377,8262,10036,9705,11377,23432,26805,23463,23989,-117,-225,18,-0.458824,-0.882353,0.070588,0,64,53690
2026-05-18T04:12:15.938+00:00,1779077535938479000,209,R,8260,10035,9706,11377,8260,10035,9706,11377,23437,26807,23464,23990,-116,-226,18,-0.454902,-0.886275,0.070588,0,64,63690
2026-05-18T04:12:15.938+00:00,1779077535938597000,210,R,8261,10038,9705,11380,8261,10038,9705,11380,23435,26807,23464,23993,-118,-227,17,-0.462745,-0.890196,0.066667,0,64,73690
2026-05-18T04:12:15.938+00:00,1779077535938725000,211,R,8260,10040,9704,11384,8260,10040,9704,11384,23436,26809,23463,23998,-119,-226,18,-0.466667,-0.886275,0.070588,0,64,83690
2026-05-18T04:12:15.939+00:00,1779077535939158000,212,R,8257,10028,9696,11365,8257,10028,9696,11365,23431,26794,23452,23975,-123,-221,18,-0.482353,-0.866667,0.070588,0,64,03760
2026-05-18T04:12:15.939+00:00,1779077535939461000,213,R,8254,10026,9697,11361,8254,10026,9697,11361,23430,26794,23450,23971,-124,-221,17,-0.486275,-0.866667,0.066667,0,64,13760
2026-05-18T04:12:15.939+00:00,1779077535939542000,214,R,8251,10022,9693,11356,8251,10022,9693,11356,23427,26785,23445,23965,-125,-221,18,-0.490196,-0.866667,0.070588,0,64,23760
2026-05-18T04:12:16.087+00:00,1779077536087477000,215,R,8252,10020,9693,11353,8252,10020,9693,11353,23426,26786,23450,23968,-123,-222,18,-0.482353,-0.870588,0.070588,0,64,33760
2026-05-18T04:12:16.087+00:00,1779077536087512000,216,R,8253,10019,9691,11353,8253,10019,9691,11353,23426,26784,23446,23963,-122,-223,18,-0.478431,-0.87451,0.070588,0,64,43760
2026-05-18T04:12:16.087+00:00,1779077536087530000,217,R,8245,10012,9686,11346,8245,10012,9686,11346,23411,26772,23433,23952,-120,-227,17,-0.470588,-0.890196,0.066667,0,64,b3820
2026-05-18T04:12:16.087+00:00,1779077536087546000,218,R,8246,10014,9685,11343,8246,10014,9685,11343,23410,26769,23435,23953,-120,-227,16,-0.470588,-0.890196,0.062745,0,64,c3820
2026-05-18T04:12:16.087+00:00,1779077536087561000,219,R,8244,10012,9684,11343,8244,10012,9684,11343,23413,26773,23435,23953,-121,-226,16,-0.47451,-0.886275,0.062745,0,64,d3820
2026-05-18T04:12:16.238+00:00,1779077536238174000,220,R,8246,10014,9682,11340,8246,10014,9682,11340,23412,26771,23432,23953,-122,-224,17,-0.478431,-0.878431,0.066667,0,64,e3820
2026-05-18T04:12:16.238+00:00,1779077536238209000,221,R,8246,10013,9685,11344,8246,10013,9685,11344,23410,26770,23435,23951,-125,-224,17,-0.490196,-0.878431,0.066667,0,64,f3820
2026-05-18T04:12:16.238+00:00,1779077536238226000,222,R,8241,10012,9681,11341,8241,10012,9681,11341,23409,26764,23432,23945,-120,-224,17,-0.470588,-0.878431,0.066667,0,64,83900
2026-05-18T04:12:16.238+00:00,1779077536238241000,223,R,8245,10013,9682,11340,8245,10013,9682,11340,23405,26767,23434,23947,-120,-225,17,-0.470588,-0.882353,0.066667,0,64,93900
2026-05-18T04:12:16.238+00:00,1779077536238255000,224,R,8243,10013,9684,11342,8243,10013,9684,11342,23407,26766,23430,23948,-120,-225,17,-0.470588,-0.882353,0.066667,0,64,a3900
2026-05-18T04:12:16.537+00:00,1779077536537338000,225,R,8242,10011,9681,11341,8242,10011,9681,11341,23406,26762,23431,23946,-121,-224,17,-0.47451,-0.878431,0.066667,0,64,b3900
2026-05-18T04:12:16.537+00:00,1779077536537754000,226,R,8242,10013,9682,11341,8242,10013,9682,11341,23407,26766,23430,23946,-121,-225,17,-0.47451,-0.882353,0.066667,0,64,c3900
2026-05-18T04:12:16.537+00:00,1779077536537835000,227,R,8245,10013,9686,11345,8245,10013,9686,11345,23412,26766,23435,23950,-120,-226,17,-0.470588,-0.886275,0.066667,0,64,23950
2026-05-18T04:12:16.537+00:00,1779077536537901000,228,R,8244,10016,9685,11346,8244,10016,9685,11346,23415,26768,23435,23951,-120,-226,16,-0.470588,-0.886275,0.062745,0,64,33950
2026-05-18T04:12:16.537+00:00,1779077536537964000,229,R,8243,10016,9686,11346,8243,10016,9686,11346,23411,26766,23436,23953,-119,-226,18,-0.466667,-0.886275,0.070588,0,64,43950
2026-05-18T04:12:16.686+00:00,1779077536686323000,230,R,8246,10017,9685,11347,8246,10017,9685,11347,23410,26766,23437,23951,-120,-226,17,-0.470588,-0.886275,0.066667,0,64,53950
2026-05-18T04:12:16.686+00:00,1779077536686362000,231,R,8246,10015,9687,11348,8246,10015,9687,11348,23410,26768,23436,23953,-120,-225,18,-0.470588,-0.882353,0.070588,0,64,63950
2026-05-18T04:12:16.686+00:00,1779077536686382000,232,R,8244,10017,9687,11346,8244,10017,9687,11346,23414,26769,23439,23953,-122,-224,18,-0.478431,-0.878431,0.070588,0,64,73950
2026-05-18T04:12:16.686+00:00,1779077536686399000,233,R,8252,10020,9690,11354,8252,10020,9690,11354,23415,26776,23442,23960,-121,-224,18,-0.47451,-0.878431,0.070588,0,64,d4000
2026-05-18T04:12:16.686+00:00,1779077536686414000,234,R,8250,10022,9689,11354,8250,10022,9689,11354,23417,26775,23441,23958,-121,-225,19,-0.47451,-0.882353,0.07451,0,64,e4000
2026-05-18T04:12:16.836+00:00,1779077536836744000,235,R,8244,10019,9690,11348,8244,10019,9690,11348,23416,26780,23438,23961,-122,-225,18,-0.478431,-0.882353,0.070588,0,64,f4000
2026-05-18T04:12:16.836+00:00,1779077536836851000,236,R,8250,10021,9692,11358,8250,10021,9692,11358,23420,26780,23442,23963,-121,-224,18,-0.47451,-0.878431,0.070588,0,64,04000
2026-05-18T04:12:16.836+00:00,1779077536836922000,237,R,8252,10024,9691,11360,8252,10024,9691,11360,23419,26780,23442,23964,-121,-224,18,-0.47451,-0.878431,0.070588,0,64,14000
2026-05-18T04:12:16.836+00:00,1779077536836986000,238,R,8254,10027,9695,11367,8254,10027,9695,11367,23425,26783,23451,23976,-125,-223,18,-0.490196,-0.87451,0.070588,0,64,94070
2026-05-18T04:12:16.837+00:00,1779077536837049000,239,R,8257,10027,9698,11367,8257,10027,9698,11367,23426,26784,23449,23975,-124,-223,17,-0.486275,-0.87451,0.066667,0,64,a4070
2026-05-18T04:12:16.985+00:00,1779077536985280000,240,R,8256,10031,9694,11368,8256,10031,9694,11368,23425,26784,23450,23980,-124,-222,18,-0.486275,-0.870588,0.070588,0,64,b4070
2026-05-18T04:12:16.985+00:00,1779077536985437000,241,R,8256,10030,9697,11369,8256,10030,9697,11369,23427,26784,23451,23980,-123,-223,16,-0.482353,-0.87451,0.062745,0,64,c4070
2026-05-18T04:12:16.985+00:00,1779077536985510000,242,R,8255,10030,9698,11370,8255,10030,9698,11370,23429,26783,23453,23978,-123,-224,17,-0.482353,-0.878431,0.066667,0,64,d4070
2026-05-18T04:12:16.985+00:00,1779077536985576000,243,R,8261,10034,9701,11380,8261,10034,9701,11380,23434,26788,23457,23991,-120,-225,19,-0.470588,-0.882353,0.07451,0,64,44130
2026-05-18T04:12:16.985+00:00,1779077536985640000,244,R,8262,10036,9701,11381,8262,10036,9701,11381,23434,26787,23452,23989,-123,-224,20,-0.482353,-0.878431,0.078431,0,64,54130
2026-05-18T04:12:16.985+00:00,1779077536985701000,245,R,8261,10033,9698,11381,8261,10033,9698,11381,23433,26783,23457,23986,-124,-221,19,-0.486275,-0.866667,0.07451,0,64,64130
2026-05-18T04:12:17.135+00:00,1779077537135612000,246,R,8259,10034,9698,11379,8259,10034,9698,11379,23433,26784,23450,23986,-124,-220,19,-0.486275,-0.862745,0.07451,0,64,74130
2026-05-18T04:12:17.135+00:00,1779077537135730000,247,R,8257,10024,9696,11369,8257,10024,9696,11369,23430,26780,23450,23982,-122,-224,17,-0.478431,-0.878431,0.066667,0,64,84130
2026-05-18T04:12:17.135+00:00,1779077537135802000,248,R,8251,10017,9682,11352,8251,10017,9682,11352,23418,26757,23436,23963,-118,-227,16,-0.462745,-0.890196,0.062745,0,64,f4190
2026-05-18T04:12:17.135+00:00,1779077537135867000,249,R,8248,10012,9682,11351,8248,10012,9682,11351,23412,26755,23433,23959,-118,-227,17,-0.462745,-0.890196,0.066667,0,64,04190
2026-05-18T04:12:17.135+00:00,1779077537135928000,250,R,8250,10015,9675,11348,8250,10015,9675,11348,23413,26754,23432,23960,-118,-227,17,-0.462745,-0.890196,0.066667,0,64,14190
2026-05-18T04:12:17.433+00:00,1779077537433813000,251,R,8246,10013,9678,11348,8246,10013,9678,11348,23412,26752,23432,23958,-117,-227,17,-0.458824,-0.890196,0.066667,0,64,24190
2026-05-18T04:12:17.433+00:00,1779077537433965000,252,R,8247,10013,9678,11347,8247,10013,9678,11347,23412,26751,23429,23957,-118,-226,16,-0.462745,-0.886275,0.062745,0,64,34190
2026-05-18T04:12:17.434+00:00,1779077537434039000,253,R,8245,10012,9676,11347,8245,10012,9676,11347,23405,26740,23431,23954,-119,-227,17,-0.466667,-0.890196,0.066667,0,64,b4260
2026-05-18T04:12:17.434+00:00,1779077537434105000,254,R,8244,10015,9677,11347,8244,10015,9677,11347,23406,26745,23430,23954,-117,-226,16,-0.458824,-0.886275,0.062745,0,64,c4260
2026-05-18T04:12:17.434+00:00,1779077537434172000,255,R,8245,10007,9684,11342,8245,10007,9684,11342,23404,26747,23432,23955,-115,-225,16,-0.45098,-0.882353,0.062745,0,64,d4260
2026-05-18T04:12:17.439+00:00,1779077537439307000,256,R,8242,10011,9675,11345,8242,10011,9675,11345,23406,26744,23430,23956,-114,-226,17,-0.447059,-0.886275,0.066667,0,64,e4260
2026-05-18T04:12:17.439+00:00,1779077537439408000,257,R,8244,10011,9675,11343,8244,10011,9675,11343,23409,26742,23428,23951,-114,-226,16,-0.447059,-0.886275,0.062745,0,64,f4260
2026-05-18T04:12:17.439+00:00,1779077537439494000,258,R,8241,10016,9679,11352,8241,10016,9679,11352,23404,26742,23429,23950,-116,-226,15,-0.454902,-0.886275,0.058824,0,64,74330
2026-05-18T04:12:17.439+00:00,1779077537439562000,259,R,8244,10013,9675,11349,8244,10013,9675,11349,23404,26741,23431,23953,-116,-227,15,-0.454902,-0.890196,0.058824,0,64,84330
2026-05-18T04:12:17.439+00:00,1779077537439626000,260,R,8243,10012,9676,11346,8243,10012,9676,11346,23405,26741,23429,23952,-114,-228,14,-0.447059,-0.894118,0.054902,0,64,94330
2026-05-18T04:12:17.588+00:00,1779077537588868000,261,R,8243,10015,9676,11348,8243,10015,9676,11348,23399,26739,23433,23955,-114,-229,14,-0.447059,-0.898039,0.054902,0,64,a4330
2026-05-18T04:12:17.589+00:00,1779077537589019000,262,R,8245,10015,9677,11347,8245,10015,9677,11347,23400,26741,23432,23957,-113,-229,14,-0.443137,-0.898039,0.054902,0,64,b4330
2026-05-18T04:12:17.589+00:00,1779077537589096000,263,R,8247,10019,9687,11355,8247,10019,9687,11355,23406,26744,23439,23961,-116,-228,13,-0.454902,-0.894118,0.05098,0,64,34400
2026-05-18T04:12:17.589+00:00,1779077537589163000,264,R,8246,10020,9682,11355,8246,10020,9682,11355,23402,26746,23437,23963,-114,-229,12,-0.447059,-0.898039,0.047059,0,64,44400
2026-05-18T04:12:17.589+00:00,1779077537589227000,265,R,8247,10022,9681,11359,8247,10022,9681,11359,23407,26747,23442,23962,-115,-229,12,-0.45098,-0.898039,0.047059,0,64,54400
2026-05-18T04:12:17.883+00:00,1779077537884047000,266,R,8251,10020,9690,11364,8251,10020,9690,11364,23407,26748,23441,23964,-115,-228,14,-0.45098,-0.894118,0.054902,0,64,64400
2026-05-18T04:12:17.884+00:00,1779077537884205000,267,R,8246,10026,9685,11358,8246,10026,9685,11358,23409,26748,23443,23965,-116,-226,14,-0.454902,-0.886275,0.054902,0,64,74400
2026-05-18T04:12:17.884+00:00,1779077537884281000,268,R,8248,10022,9684,11358,8248,10022,9684,11358,23411,26750,23443,23965,-116,-227,14,-0.454902,-0.890196,0.054902,0,64,84400
2026-05-18T04:12:17.884+00:00,1779077537884347000,269,R,8252,10028,9688,11367,8252,10028,9688,11367,23415,26759,23445,23974,-116,-228,14,-0.454902,-0.894118,0.054902,0,64,f4460
2026-05-18T04:12:17.884+00:00,1779077537884410000,270,R,8251,10028,9690,11368,8251,10028,9690,11368,23413,26756,23453,23976,-116,-227,14,-0.454902,-0.890196,0.054902,0,64,04460
2026-05-18T04:12:17.889+00:00,1779077537889454000,271,R,8251,10030,9688,11368,8251,10030,9688,11368,23415,26760,23451,23976,-115,-226,14,-0.45098,-0.886275,0.054902,0,64,14460
2026-05-18T04:12:17.889+00:00,1779077537889545000,272,R,8253,10027,9687,11368,8253,10027,9687,11368,23411,26756,23452,23976,-115,-227,13,-0.45098,-0.890196,0.05098,0,64,24460
2026-05-18T04:12:17.889+00:00,1779077537889852000,273,R,8254,10030,9690,11368,8254,10030,9690,11368,23415,26762,23454,23981,-115,-228,13,-0.45098,-0.894118,0.05098,0,64,34460
2026-05-18T04:12:17.889+00:00,1779077537889920000,274,R,8257,10036,9694,11380,8257,10036,9694,11380,23420,26768,23457,23987,-115,-227,13,-0.45098,-0.890196,0.05098,0,64,a4520
2026-05-18T04:12:17.889+00:00,1779077537889982000,275,R,8256,10034,9694,11379,8256,10034,9694,11379,23423,26766,23459,23989,-117,-228,13,-0.458824,-0.894118,0.05098,0,64,b4520
2026-05-18T04:12:18.038+00:00,1779077538038986000,276,R,8257,10037,9694,11378,8257,10037,9694,11378,23417,26764,23457,23990,-116,-228,13,-0.454902,-0.894118,0.05098,0,64,c4520
2026-05-18T04:12:18.039+00:00,1779077538039151000,277,R,8255,10033,9695,11376,8255,10033,9695,11376,23420,26766,23456,23988,-117,-229,14,-0.458824,-0.898039,0.054902,0,64,d4520
2026-05-18T04:12:18.039+00:00,1779077538039228000,278,R,8257,10033,9692,11376,8257,10033,9692,11376,23420,26766,23452,23985,-117,-229,14,-0.458824,-0.898039,0.054902,0,64,e4520
2026-05-18T04:12:18.039+00:00,1779077538039294000,279,R,8248,10018,9681,11351,8248,10018,9681,11351,23407,26750,23438,23958,-114,-229,14,-0.447059,-0.898039,0.054902,0,64,54580
2026-05-18T04:12:18.039+00:00,1779077538039360000,280,R,8248,10021,9683,11357,8248,10021,9683,11357,23408,26749,23435,23961,-113,-228,13,-0.443137,-0.894118,0.05098,0,64,64580
2026-05-18T04:12:18.039+00:00,1779077538039424000,281,R,8245,10017,9680,11349,8245,10017,9680,11349,23408,26745,23433,23955,-113,-228,15,-0.443137,-0.894118,0.058824,0,64,74580
2026-05-18T04:12:18.189+00:00,1779077538189382000,282,R,8244,10016,9680,11347,8244,10016,9680,11347,23406,26745,23435,23955,-113,-228,14,-0.443137,-0.894118,0.054902,0,64,84580
2026-05-18T04:12:18.189+00:00,1779077538189505000,283,R,8243,10016,9678,11347,8243,10016,9678,11347,23400,26744,23431,23951,-114,-229,14,-0.447059,-0.898039,0.054902,0,64,94580
2026-05-18T04:12:18.189+00:00,1779077538189586000,284,R,8241,10012,9677,11344,8241,10012,9677,11344,23400,26741,23426,23948,-113,-229,13,-0.443137,-0.898039,0.05098,0,64,04640
2026-05-18T04:12:18.189+00:00,1779077538189653000,285,R,8240,10012,9674,11343,8240,10012,9674,11343,23396,26737,23429,23947,-113,-229,14,-0.443137,-0.898039,0.054902,0,64,14640
2026-05-18T04:12:18.189+00:00,1779077538189717000,286,R,8241,10012,9676,11342,8241,10012,9676,11342,23398,26737,23430,23945,-113,-229,13,-0.443137,-0.898039,0.05098,0,64,24640
2026-05-18T04:12:18.338+00:00,1779077538338700000,287,R,8243,10013,9677,11342,8243,10013,9677,11342,23396,26737,23430,23948,-112,-229,14,-0.439216,-0.898039,0.054902,0,64,34640
2026-05-18T04:12:18.338+00:00,1779077538338735000,288,R,8240,10014,9674,11340,8240,10014,9674,11340,23396,26738,23432,23946,-113,-228,13,-0.443137,-0.894118,0.05098,0,64,44640
2026-05-18T04:12:18.338+00:00,1779077538338752000,289,R,8241,10013,9673,11339,8241,10013,9673,11339,23394,26737,23428,23946,-113,-228,13,-0.443137,-0.894118,0.05098,0,64,c4710
2026-05-18T04:12:18.338+00:00,1779077538338766000,290,R,8240,10011,9671,11335,8240,10011,9671,11335,23393,26733,23426,23941,-111,-229,13,-0.435294,-0.898039,0.05098,0,64,d4710
2026-05-18T04:12:18.338+00:00,1779077538338779000,291,R,8241,10012,9674,11341,8241,10012,9674,11341,23394,26735,23431,23947,-111,-230,12,-0.435294,-0.901961,0.047059,0,62,e4710
2026-05-18T04:12:18.488+00:00,1779077538488799000,292,R,8240,10012,9673,11341,8240,10012,9673,11341,23396,26741,23432,23947,-111,-230,11,-0.435294,-0.901961,0.043137,0,62,f4710
2026-05-18T04:12:18.488+00:00,1779077538488937000,293,R,8240,10015,9673,11342,8240,10015,9673,11342,23393,26740,23430,23947,-111,-230,12,-0.435294,-0.901961,0.047059,0,62,04710
2026-05-18T04:12:18.489+00:00,1779077538489012000,294,R,8242,10018,9676,11349,8242,10018,9676,11349,23397,26737,23436,23952,-110,-229,12,-0.431373,-0.898039,0.047059,0,62,74770
2026-05-18T04:12:18.489+00:00,1779077538489096000,295,R,8240,10016,9678,11344,8240,10016,9678,11344,23397,26737,23435,23953,-111,-229,11,-0.435294,-0.898039,0.043137,0,62,84770
2026-05-18T04:12:18.489+00:00,1779077538489162000,296,R,8243,10018,9676,11349,8243,10018,9676,11349,23397,26738,23437,23954,-111,-230,11,-0.435294,-0.901961,0.043137,0,62,94770
2026-05-18T04:12:18.639+00:00,1779077538639562000,297,R,8243,10018,9679,11350,8243,10018,9679,11350,23399,26739,23437,23956,-111,-231,12,-0.435294,-0.905882,0.047059,0,62,a4770
2026-05-18T04:12:18.639+00:00,1779077538639713000,298,R,8244,10019,9675,11352,8244,10019,9675,11352,23400,26737,23437,23954,-111,-231,12,-0.435294,-0.905882,0.047059,0,62,b4770
2026-05-18T04:12:18.639+00:00,1779077538639788000,299,R,8243,10019,9678,11351,8243,10019,9678,11351,23399,26742,23440,23957,-110,-230,11,-0.431373,-0.901961,0.043137,0,62,c4770
2026-05-18T04:12:18.639+00:00,1779077538639854000,300,R,8245,10024,9681,11359,8245,10024,9681,11359,23402,26746,23445,23963,-109,-231,12,-0.427451,-0.905882,0.047059,0,62,24820
2026-05-18T04:12:18.640+00:00,1779077538640195000,301,R,8247,10025,9683,11360,8247,10025,9683,11360,23400,26745,23444,23961,-109,-229,12,-0.427451,-0.898039,0.047059,0,62,34820
2026-05-18T04:12:18.788+00:00,1779077538788164000,302,R,8250,10024,9682,11360,8250,10024,9682,11360,23401,26743,23447,23966,-109,-230,11,-0.427451,-0.901961,0.043137,0,62,44820
2026-05-18T04:12:18.788+00:00,1779077538788200000,303,R,8246,10025,9682,11358,8246,10025,9682,11358,23404,26748,23444,23965,-109,-230,12,-0.427451,-0.901961,0.047059,0,62,54820
2026-05-18T04:12:18.788+00:00,1779077538788216000,304,R,8246,10026,9683,11361,8246,10026,9683,11361,23400,26749,23444,23967,-109,-230,11,-0.427451,-0.901961,0.043137,0,62,64820
2026-05-18T04:12:18.788+00:00,1779077538788231000,305,R,8249,10032,9689,11374,8249,10032,9689,11374,23408,26751,23453,23977,-110,-232,10,-0.431373,-0.909804,0.039216,0,62,e4890
2026-05-18T04:12:18.788+00:00,1779077538788244000,306,R,8254,10032,9689,11373,8254,10032,9689,11373,23410,26755,23454,23979,-108,-231,11,-0.423529,-0.905882,0.043137,0,62,f4890
2026-05-18T04:12:18.939+00:00,1779077538939461000,307,R,8254,10034,9687,11374,8254,10034,9687,11374,23410,26754,23457,23978,-107,-231,11,-0.419608,-0.905882,0.043137,0,62,04890
2026-05-18T04:12:18.939+00:00,1779077538939599000,308,R,8252,10034,9688,11376,8252,10034,9688,11376,23411,26758,23455,23982,-109,-232,11,-0.427451,-0.909804,0.043137,0,62,14890
2026-05-18T04:12:18.939+00:00,1779077538939674000,309,R,8255,10034,9688,11375,8255,10034,9688,11375,23411,26758,23457,23985,-108,-231,10,-0.423529,-0.905882,0.039216,0,62,24890
2026-05-18T04:12:18.939+00:00,1779077538939740000,310,R,8251,10027,9684,11365,8251,10027,9684,11365,23403,26750,23445,23968,-108,-230,10,-0.423529,-0.901961,0.039216,0,62,a4960
2026-05-18T04:12:18.939+00:00,1779077538939805000,311,R,8248,10020,9680,11352,8248,10020,9680,11352,23402,26744,23438,23958,-108,-230,11,-0.423529,-0.901961,0.043137,0,62,b4960
2026-05-18T04:12:18.939+00:00,1779077538939869000,312,R,8244,10017,9677,11345,8244,10017,9677,11345,23399,26738,23439,23958,-108,-231,11,-0.423529,-0.905882,0.043137,0,62,c4960
2026-05-18T04:12:19.089+00:00,1779077539089257000,313,R,8246,10019,9673,11345,8246,10019,9673,11345,23403,26743,23437,23954,-108,-230,11,-0.423529,-0.901961,0.043137,0,62,d4960
2026-05-18T04:12:19.089+00:00,1779077539089390000,314,R,8242,10015,9675,11345,8242,10015,9675,11345,23399,26736,23435,23950,-108,-230,10,-0.423529,-0.901961,0.039216,0,62,e4960
2026-05-18T04:12:19.089+00:00,1779077539089461000,315,R,8238,10008,9668,11334,8238,10008,9668,11334,23390,26726,23428,23943,-108,-231,11,-0.423529,-0.905882,0.043137,0,62,65030
2026-05-18T04:12:19.089+00:00,1779077539089526000,316,R,8239,10010,9668,11334,8239,10010,9668,11334,23388,26725,23428,23942,-107,-230,10,-0.419608,-0.901961,0.039216,0,62,75030
2026-05-18T04:12:19.089+00:00,1779077539089590000,317,R,8237,10009,9668,11335,8237,10009,9668,11335,23387,26725,23426,23938,-109,-230,11,-0.427451,-0.901961,0.043137,0,62,85030
2026-05-18T04:12:19.238+00:00,1779077539238724000,318,R,8237,10007,9668,11336,8237,10007,9668,11336,23385,26727,23427,23938,-109,-231,11,-0.427451,-0.905882,0.043137,0,62,95030
2026-05-18T04:12:19.238+00:00,1779077539238884000,319,R,8234,10004,9666,11326,8234,10004,9666,11326,23386,26723,23424,23938,-108,-233,10,-0.423529,-0.913725,0.039216,0,62,a5030
2026-05-18T04:12:19.238+00:00,1779077539238960000,320,R,8234,10007,9668,11330,8234,10007,9668,11330,23380,26727,23424,23932,-110,-230,12,-0.431373,-0.901961,0.047059,0,62,25100
2026-05-18T04:12:19.239+00:00,1779077539239029000,321,R,8236,10005,9668,11331,8236,10005,9668,11331,23386,26730,23423,23932,-109,-230,12,-0.427451,-0.901961,0.047059,0,62,35100
2026-05-18T04:12:19.239+00:00,1779077539239109000,322,R,8237,10006,9670,11330,8237,10006,9670,11330,23383,26728,23419,23931,-109,-230,12,-0.427451,-0.901961,0.047059,0,62,45100
2026-05-18T04:12:19.389+00:00,1779077539389109000,323,R,8237,10005,9672,11331,8237,10005,9672,11331,23382,26728,23422,23930,-111,-230,11,-0.435294,-0.901961,0.043137,0,62,55100
2026-05-18T04:12:19.389+00:00,1779077539389216000,324,R,8237,10006,9670,11331,8237,10006,9670,11331,23386,26732,23422,23932,-109,-230,10,-0.427451,-0.901961,0.039216,0,62,65100
2026-05-18T04:12:19.389+00:00,1779077539389301000,325,R,8238,10008,9672,11335,8238,10008,9672,11335,23386,26728,23425,23933,-111,-230,12,-0.435294,-0.901961,0.047059,0,62,e5170
2026-05-18T04:12:19.389+00:00,1779077539389366000,326,R,8237,10009,9671,11337,8237,10009,9671,11337,23389,26739,23422,23937,-109,-230,11,-0.427451,-0.901961,0.043137,0,62,f5170
2026-05-18T04:12:19.389+00:00,1779077539389428000,327,R,8239,10009,9672,11339,8239,10009,9672,11339,23386,26735,23428,23940,-110,-230,12,-0.431373,-0.901961,0.047059,0,62,05170
2026-05-18T04:12:19.688+00:00,1779077539688877000,328,R,8238,10011,9673,11339,8238,10011,9673,11339,23387,26736,23426,23942,-110,-230,13,-0.431373,-0.901961,0.05098,0,62,15170
2026-05-18T04:12:19.689+00:00,1779077539689030000,329,R,8240,10012,9673,11347,8240,10012,9673,11347,23390,26736,23428,23938,-111,-229,12,-0.435294,-0.898039,0.047059,0,62,25170
2026-05-18T04:12:19.689+00:00,1779077539689104000,330,R,8242,10017,9679,11346,8242,10017,9679,11346,23393,26741,23435,23948,-110,-229,12,-0.431373,-0.898039,0.047059,0,62,a5240
2026-05-18T04:12:19.689+00:00,1779077539689170000,331,R,8241,10011,9667,11344,8241,10011,9667,11344,23393,26742,23434,23947,-111,-228,13,-0.435294,-0.894118,0.05098,0,62,b5240
2026-05-18T04:12:19.689+00:00,1779077539689234000,332,R,8245,10019,9680,11349,8245,10019,9680,11349,23394,26744,23434,23951,-113,-229,11,-0.443137,-0.898039,0.043137,0,62,c5240
2026-05-18T04:12:19.837+00:00,1779077539837878000,333,R,8244,10018,9679,11350,8244,10018,9679,11350,23395,26746,23436,23951,-113,-229,12,-0.443137,-0.898039,0.047059,0,62,d5240
2026-05-18T04:12:19.837+00:00,1779077539838000000,334,R,8245,10019,9679,11351,8245,10019,9679,11351,23394,26747,23436,23951,-113,-230,11,-0.443137,-0.901961,0.043137,0,62,e5240
2026-05-18T04:12:19.838+00:00,1779077539838071000,335,R,8244,10019,9680,11353,8244,10019,9680,11353,23396,26744,23438,23957,-113,-230,12,-0.443137,-0.901961,0.047059,0,62,f5240
2026-05-18T04:12:19.838+00:00,1779077539838137000,336,R,8249,10021,9684,11359,8249,10021,9684,11359,23397,26750,23438,23961,-112,-229,12,-0.439216,-0.898039,0.047059,0,62,45280
2026-05-18T04:12:19.838+00:00,1779077539838200000,337,R,8248,10024,9684,11357,8248,10024,9684,11357,23404,26752,23442,23962,-112,-228,12,-0.439216,-0.894118,0.047059,0,62,55280
2026-05-18T04:12:19.987+00:00,1779077539988007000,338,R,8247,10022,9684,11360,8247,10022,9684,11360,23405,26754,23439,23961,-114,-228,13,-0.447059,-0.894118,0.05098,0,62,65280
2026-05-18T04:12:19.988+00:00,1779077539988125000,339,R,8248,10024,9683,11361,8248,10024,9683,11361,23401,26756,23443,23967,-113,-229,12,-0.443137,-0.898039,0.047059,0,62,75280
2026-05-18T04:12:19.988+00:00,1779077539988198000,340,R,8252,10026,9685,11362,8252,10026,9685,11362,23405,26753,23443,23964,-111,-228,12,-0.435294,-0.894118,0.047059,0,62,85280
2026-05-18T04:12:19.988+00:00,1779077539988264000,341,R,8252,10027,9684,11363,8252,10027,9684,11363,23408,26752,23445,23973,-112,-231,12,-0.439216,-0.905882,0.047059,0,62,f5340
2026-05-18T04:12:19.988+00:00,1779077539988327000,342,R,8250,10022,9682,11362,8250,10022,9682,11362,23410,26752,23440,23966,-112,-231,12,-0.439216,-0.905882,0.047059,0,62,05340
2026-05-18T04:12:20.436+00:00,1779077540436418000,343,R,8250,10020,9682,11358,8250,10020,9682,11358,23405,26751,23438,23964,-110,-230,12,-0.431373,-0.901961,0.047059,0,62,15340
2026-05-18T04:12:20.436+00:00,1779077540436450000,344,R,8248,10024,9683,11360,8248,10024,9683,11360,23405,26745,23437,23962,-110,-229,11,-0.431373,-0.898039,0.043137,0,62,25340
2026-05-18T04:12:20.436+00:00,1779077540436467000,345,R,8246,10015,9679,11348,8246,10015,9679,11348,23407,26742,23432,23959,-110,-228,12,-0.431373,-0.894118,0.047059,0,62,35340
2026-05-18T04:12:20.436+00:00,1779077540436481000,346,R,8241,10008,9668,11334,8241,10008,9668,11334,23389,26727,23420,23944,-111,-231,11,-0.435294,-0.905882,0.043137,0,62,b5410
2026-05-18T04:12:20.436+00:00,1779077540436494000,347,R,8236,10006,9657,11328,8236,10006,9657,11328,23394,26723,23421,23938,-111,-230,11,-0.435294,-0.901961,0.043137,0,62,c5410
2026-05-18T04:12:20.436+00:00,1779077540436551000,348,R,8236,10005,9667,11331,8236,10005,9667,11331,23388,26723,23419,23937,-110,-229,11,-0.431373,-0.898039,0.043137,0,62,d5410
2026-05-18T04:12:20.587+00:00,1779077540587314000,349,R,8239,10004,9663,11328,8239,10004,9663,11328,23387,26721,23415,23936,-110,-230,12,-0.431373,-0.901961,0.047059,0,62,e5410
2026-05-18T04:12:20.587+00:00,1779077540587484000,350,R,8234,10000,9667,11330,8234,10000,9667,11330,23386,26719,23419,23936,-110,-230,11,-0.431373,-0.901961,0.043137,0,62,f5410
2026-05-18T04:12:20.587+00:00,1779077540587562000,351,R,8236,10001,9663,11328,8236,10001,9663,11328,23384,26716,23414,23930,-110,-229,11,-0.431373,-0.898039,0.043137,0,62,75480
2026-05-18T04:12:20.587+00:00,1779077540587629000,352,R,8236,10001,9665,11328,8236,10001,9665,11328,23381,26718,23416,23931,-109,-230,11,-0.427451,-0.901961,0.043137,0,62,85480
2026-05-18T04:12:20.587+00:00,1779077540587700000,353,R,8237,10002,9663,11323,8237,10002,9663,11323,23380,26717,23415,23931,-110,-231,11,-0.431373,-0.905882,0.043137,0,62,95480
2026-05-18T04:12:20.736+00:00,1779077540736651000,354,R,8234,10001,9663,11326,8234,10001,9663,11326,23381,26718,23415,23930,-111,-230,11,-0.435294,-0.901961,0.043137,0,62,a5480
2026-05-18T04:12:20.736+00:00,1779077540736697000,355,R,8233,10001,9661,11327,8233,10001,9661,11327,23379,26715,23415,23930,-111,-231,11,-0.435294,-0.905882,0.043137,0,62,b5480
2026-05-18T04:12:20.736+00:00,1779077540736719000,356,R,8230,10000,9654,11319,8230,10000,9654,11319,23379,26713,23417,23934,-110,-230,11,-0.431373,-0.901961,0.043137,0,62,15530
2026-05-18T04:12:20.736+00:00,1779077540736739000,357,R,8233,10001,9663,11330,8233,10001,9663,11330,23376,26712,23414,23931,-110,-230,11,-0.431373,-0.901961,0.043137,0,62,25530
2026-05-18T04:12:20.736+00:00,1779077540736757000,358,R,8235,10003,9666,11330,8235,10003,9666,11330,23382,26716,23421,23935,-110,-230,11,-0.431373,-0.901961,0.043137,0,62,35530
2026-05-18T04:12:20.887+00:00,1779077540887265000,359,R,8235,10002,9664,11331,8235,10002,9664,11331,23380,26714,23419,23935,-110,-230,11,-0.431373,-0.901961,0.043137,0,62,45530
2026-05-18T04:12:20.887+00:00,1779077540887409000,360,R,8233,10006,9662,11334,8233,10006,9662,11334,23382,26718,23422,23935,-109,-230,11,-0.427451,-0.901961,0.043137,0,62,55530
2026-05-18T04:12:20.887+00:00,1779077540887494000,361,R,8239,10011,9668,11341,8239,10011,9668,11341,23384,26723,23430,23946,-109,-231,11,-0.427451,-0.905882,0.043137,0,62,05630
2026-05-18T04:12:20.887+00:00,1779077540887561000,362,R,8238,10015,9673,11350,8238,10015,9673,11350,23386,26726,23430,23947,-109,-231,10,-0.427451,-0.905882,0.039216,0,62,15630
2026-05-18T04:12:20.887+00:00,1779077540887624000,363,R,8240,10009,9669,11343,8240,10009,9669,11343,23388,26722,23432,23948,-111,-231,11,-0.435294,-0.905882,0.043137,0,62,25630
2026-05-18T04:12:21.037+00:00,1779077541037351000,364,R,8239,10012,9668,11345,8239,10012,9668,11345,23389,26726,23434,23952,-110,-230,10,-0.431373,-0.901961,0.039216,0,62,35630
2026-05-18T04:12:21.037+00:00,1779077541037517000,365,R,8242,10016,9673,11346,8242,10016,9673,11346,23391,26722,23432,23947,-111,-230,10,-0.435294,-0.901961,0.039216,0,62,45630
2026-05-18T04:12:21.037+00:00,1779077541037592000,366,R,8240,10014,9669,11347,8240,10014,9669,11347,23391,26726,23432,23947,-110,-229,10,-0.431373,-0.898039,0.039216,0,62,55630
2026-05-18T04:12:21.037+00:00,1779077541037656000,367,R,8244,10020,9675,11353,8244,10020,9675,11353,23391,26731,23437,23955,-111,-231,10,-0.435294,-0.905882,0.039216,0,62,a5670
2026-05-18T04:12:21.037+00:00,1779077541037720000,368,R,8242,10020,9675,11351,8242,10020,9675,11351,23393,26734,23437,23961,-111,-230,10,-0.435294,-0.901961,0.039216,0,62,b5670
2026-05-18T04:12:21.187+00:00,1779077541187251000,369,R,8245,10021,9676,11357,8245,10021,9676,11357,23395,26737,23444,23963,-111,-228,10,-0.435294,-0.894118,0.039216,0,62,c5670
2026-05-18T04:12:21.187+00:00,1779077541187396000,370,R,8240,10017,9677,11348,8240,10017,9677,11348,23394,26734,23443,23964,-110,-229,11,-0.431373,-0.898039,0.043137,0,62,d5670
2026-05-18T04:12:21.187+00:00,1779077541187469000,371,R,8244,10019,9676,11356,8244,10019,9676,11356,23394,26739,23443,23964,-110,-229,11,-0.431373,-0.898039,0.043137,0,62,e5670
2026-05-18T04:12:21.187+00:00,1779077541187536000,372,R,8243,10013,9671,11343,8243,10013,9671,11343,23390,26731,23436,23955,-112,-229,10,-0.439216,-0.898039,0.039216,0,62,95770
2026-05-18T04:12:21.187+00:00,1779077541187597000,373,R,8242,10013,9669,11344,8242,10013,9669,11344,23387,26724,23434,23952,-111,-229,10,-0.435294,-0.898039,0.039216,0,62,a5770
2026-05-18T04:12:21.487+00:00,1779077541487371000,374,R,8238,10010,9669,11339,8238,10010,9669,11339,23389,26725,23432,23949,-111,-230,9,-0.435294,-0.901961,0.035294,0,62,b5770
2026-05-18T04:12:21.487+00:00,1779077541487535000,375,R,8239,10010,9669,11337,8239,10010,9669,11337,23385,26724,23426,23946,-110,-230,9,-0.431373,-0.901961,0.035294,0,62,c5770
2026-05-18T04:12:21.488+00:00,1779077541488532000,376,R,8241,10013,9662,11339,8241,10013,9662,11339,23384,26722,23426,23947,-110,-230,10,-0.431373,-0.901961,0.039216,0,62,d5770
2026-05-18T04:12:21.488+00:00,1779077541488578000,377,R,8234,10002,9660,11324,8234,10002,9660,11324,23379,26712,23421,23933,-110,-230,11,-0.431373,-0.901961,0.043137,0,62,45830
2026-05-18T04:12:21.488+00:00,1779077541488613000,378,R,8234,10003,9664,11334,8234,10003,9664,11334,23377,26709,23421,23931,-111,-229,10,-0.435294,-0.898039,0.039216,0,62,55830
2026-05-18T04:12:21.488+00:00,1779077541488652000,379,R,8231,10001,9661,11327,8231,10001,9661,11327,23375,26707,23420,23933,-109,-229,10,-0.427451,-0.898039,0.039216,0,62,65830
2026-05-18T04:12:21.636+00:00,1779077541636062000,380,R,8231,10002,9662,11326,8231,10002,9662,11326,23376,26705,23420,23932,-110,-230,10,-0.431373,-0.901961,0.039216,0,62,75830
2026-05-18T04:12:21.636+00:00,1779077541636222000,381,R,8232,10001,9660,11327,8232,10001,9660,11327,23373,26710,23421,23934,-110,-230,10,-0.431373,-0.901961,0.039216,0,62,85830
2026-05-18T04:12:21.636+00:00,1779077541636296000,382,R,8230,10000,9660,11325,8230,10000,9660,11325,23372,26706,23419,23932,-111,-229,10,-0.435294,-0.898039,0.039216,0,62,f5890
2026-05-18T04:12:21.636+00:00,1779077541636363000,383,R,8230,9999,9659,11322,8230,9999,9659,11322,23370,26706,23419,23930,-111,-229,10,-0.435294,-0.898039,0.039216,0,62,05890
2026-05-18T04:12:21.636+00:00,1779077541636392000,384,R,8232,10001,9658,11321,8232,10001,9658,11321,23370,26707,23417,23929,-111,-230,9,-0.435294,-0.901961,0.035294,0,62,15890
2026-05-18T04:12:21.935+00:00,1779077541935479000,385,R,8230,9999,9658,11324,8230,9999,9658,11324,23372,26708,23418,23930,-111,-229,9,-0.435294,-0.898039,0.035294,0,62,25890
2026-05-18T04:12:21.935+00:00,1779077541935639000,386,R,8229,10001,9660,11324,8229,10001,9660,11324,23372,26706,23420,23932,-111,-230,10,-0.435294,-0.901961,0.039216,0,62,35890
2026-05-18T04:12:21.935+00:00,1779077541935713000,387,R,8230,10005,9663,11329,8230,10005,9663,11329,23372,26712,23421,23932,-111,-229,10,-0.435294,-0.898039,0.039216,0,62,a5950
2026-05-18T04:12:21.935+00:00,1779077541935779000,388,R,8231,10002,9662,11329,8231,10002,9662,11329,23376,26716,23420,23937,-112,-230,9,-0.439216,-0.901961,0.035294,0,62,b5950
2026-05-18T04:12:21.935+00:00,1779077541935843000,389,R,8233,10003,9661,11332,8233,10003,9661,11332,23374,26717,23422,23934,-110,-230,9,-0.431373,-0.901961,0.035294,0,62,c5950
2026-05-18T04:12:22.085+00:00,1779077542085419000,390,R,8230,10004,9659,11331,8230,10004,9659,11331,23376,26712,23422,23938,-111,-230,9,-0.435294,-0.901961,0.035294,0,62,d5950
2026-05-18T04:12:22.085+00:00,1779077542085572000,391,R,8235,10005,9663,11332,8235,10005,9663,11332,23371,26719,23423,23933,-111,-230,10,-0.435294,-0.901961,0.039216,0,62,e5950
2026-05-18T04:12:22.085+00:00,1779077542085647000,392,R,8234,10009,9663,11341,8234,10009,9663,11341,23379,26714,23429,23953,-110,-231,10,-0.431373,-0.905882,0.039216,0,62,76030
2026-05-18T04:12:22.085+00:00,1779077542085715000,393,R,8234,10008,9661,11346,8234,10008,9661,11346,23376,26712,23425,23954,-110,-230,9,-0.431373,-0.901961,0.035294,0,62,86030
2026-05-18T04:12:22.085+00:00,1779077542085778000,394,R,8233,10008,9661,11343,8233,10008,9661,11343,23376,26707,23428,23953,-110,-229,10,-0.431373,-0.898039,0.039216,0,62,96030
2026-05-18T04:12:22.237+00:00,1779077542237240000,395,R,8233,10011,9662,11347,8233,10011,9662,11347,23379,26709,23428,23953,-112,-229,10,-0.439216,-0.898039,0.039216,0,62,a6030
2026-05-18T04:12:22.237+00:00,1779077542237399000,396,R,8235,10011,9660,11347,8235,10011,9660,11347,23377,26707,23428,23957,-112,-230,9,-0.439216,-0.901961,0.035294,0,62,b6030
2026-05-18T04:12:22.237+00:00,1779077542237545000,397,R,8235,10012,9662,11347,8235,10012,9662,11347,23378,26711,23429,23954,-112,-230,9,-0.439216,-0.901961,0.035294,0,62,c6030
2026-05-18T04:12:22.237+00:00,1779077542237634000,398,R,8239,10017,9671,11352,8239,10017,9671,11352,23379,26715,23428,23961,-110,-230,9,-0.431373,-0.901961,0.035294,0,62,16070
2026-05-18T04:12:22.237+00:00,1779077542237705000,399,R,8240,10017,9665,11354,8240,10017,9665,11354,23383,26712,23435,23968,-111,-230,10,-0.435294,-0.901961,0.039216,0,62,26070
2026-05-18T04:12:22.385+00:00,1779077542385333000,400,R,8238,10017,9664,11355,8238,10017,9664,11355,23383,26715,23436,23968,-111,-230,10,-0.435294,-0.901961,0.039216,0,62,36070
2026-05-18T04:12:22.385+00:00,1779077542385472000,401,R,8239,10016,9664,11356,8239,10016,9664,11356,23384,26715,23433,23970,-111,-229,10,-0.435294,-0.898039,0.039216,0,62,46070
2026-05-18T04:12:22.385+00:00,1779077542385545000,402,R,8240,10019,9666,11360,8240,10019,9666,11360,23383,26713,23433,23964,-112,-228,10,-0.439216,-0.894118,0.039216,0,62,56070
2026-05-18T04:12:22.385+00:00,1779077542385613000,403,R,8238,10011,9656,11354,8238,10011,9656,11354,23382,26693,23428,23966,-110,-231,9,-0.431373,-0.905882,0.035294,0,62,d6140
2026-05-18T04:12:22.385+00:00,1779077542385677000,404,R,8237,10010,9647,11349,8237,10010,9647,11349,23376,26679,23426,23968,-111,-230,9,-0.435294,-0.901961,0.035294,0,62,e6140
2026-05-18T04:12:22.536+00:00,1779077542536131000,405,R,8233,10005,9640,11347,8233,10005,9640,11347,23377,26665,23421,23963,-109,-228,9,-0.427451,-0.894118,0.035294,0,62,f6140
2026-05-18T04:12:22.536+00:00,1779077542536288000,406,R,8232,10000,9633,11342,8232,10000,9633,11342,23373,26647,23415,23962,-113,-228,9,-0.443137,-0.894118,0.035294,0,62,06140
2026-05-18T04:12:22.536+00:00,1779077542536361000,407,R,8227,9998,9621,11342,8227,9998,9621,11342,23370,26633,23412,23958,-112,-229,9,-0.439216,-0.898039,0.035294,0,62,16140
2026-05-18T04:12:22.536+00:00,1779077542536423000,408,R,8217,9987,9600,11331,8217,9987,9600,11331,23347,26570,23395,23953,-113,-228,9,-0.443137,-0.894118,0.035294,0,62,86200
2026-05-18T04:12:22.536+00:00,1779077542536487000,409,R,8214,9985,9600,11328,8214,9985,9600,11328,23345,26566,23390,23952,-113,-228,10,-0.443137,-0.894118,0.039216,0,62,96200
2026-05-18T04:12:22.536+00:00,1779077542536549000,410,R,8212,9982,9597,11327,8212,9982,9597,11327,23343,26565,23390,23949,-112,-229,9,-0.439216,-0.898039,0.035294,0,62,a6200
2026-05-18T04:12:22.687+00:00,1779077542687413000,411,R,8212,9983,9596,11329,8212,9983,9596,11329,23341,26560,23392,23948,-112,-229,10,-0.439216,-0.898039,0.039216,0,62,b6200
2026-05-18T04:12:22.687+00:00,1779077542687578000,412,R,8211,9984,9594,11328,8211,9984,9594,11328,23339,26558,23394,23950,-111,-229,9,-0.435294,-0.898039,0.035294,0,62,c6200
2026-05-18T04:12:22.687+00:00,1779077542687653000,413,R,8207,9983,9592,11324,8207,9983,9592,11324,23336,26551,23392,23946,-112,-229,9,-0.439216,-0.898039,0.035294,0,62,36260
2026-05-18T04:12:22.687+00:00,1779077542687718000,414,R,8215,9983,9598,11330,8215,9983,9598,11330,23337,26548,23392,23946,-112,-229,9,-0.439216,-0.898039,0.035294,0,62,46260
2026-05-18T04:12:22.687+00:00,1779077542687782000,415,R,8209,9982,9594,11323,8209,9982,9594,11323,23338,26548,23391,23949,-111,-228,10,-0.435294,-0.894118,0.039216,0,62,56260
2026-05-18T04:12:22.837+00:00,1779077542837336000,416,R,8210,9982,9592,11323,8210,9982,9592,11323,23336,26551,23392,23947,-111,-228,10,-0.435294,-0.894118,0.039216,0,62,66260
2026-05-18T04:12:22.837+00:00,1779077542837510000,417,R,8211,9982,9590,11322,8211,9982,9590,11322,23336,26554,23392,23946,-113,-227,10,-0.443137,-0.890196,0.039216,0,62,76260
2026-05-18T04:12:22.837+00:00,1779077542837590000,418,R,8211,9984,9593,11324,8211,9984,9593,11324,23334,26555,23394,23946,-113,-230,9,-0.443137,-0.901961,0.035294,0,62,f6330
2026-05-18T04:12:22.837+00:00,1779077542837656000,419,R,8208,9984,9595,11325,8208,9984,9595,11325,23338,26555,23393,23948,-113,-229,9,-0.443137,-0.898039,0.035294,0,62,06330
2026-05-18T04:12:22.837+00:00,1779077542837795000,420,R,8207,9984,9592,11326,8207,9984,9592,11326,23335,26556,23393,23947,-113,-230,9,-0.443137,-0.901961,0.035294,0,62,16330
2026-05-18T04:12:22.984+00:00,1779077542984980000,421,R,8209,9984,9594,11326,8209,9984,9594,11326,23335,26554,23396,23948,-112,-231,8,-0.439216,-0.905882,0.031373,0,62,26330
2026-05-18T04:12:22.985+00:00,1779077542985102000,422,R,8209,9986,9596,11328,8209,9986,9596,11328,23335,26557,23397,23950,-110,-229,11,-0.431373,-0.898039,0.043137,0,62,36330
2026-05-18T04:12:22.985+00:00,1779077542985319000,423,R,8208,9986,9594,11329,8208,9986,9594,11329,23341,26557,23401,23948,-111,-230,12,-0.435294,-0.901961,0.047059,0,62,46330
2026-05-18T04:12:22.985+00:00,1779077542985389000,424,R,8213,9988,9598,11331,8213,9988,9598,11331,23343,26567,23404,23954,-106,-227,14,-0.415686,-0.890196,0.054902,0,62,a6380
2026-05-18T04:12:22.985+00:00,1779077542985453000,425,R,8213,9990,9599,11333,8213,9990,9599,11333,23341,26568,23405,23957,-112,-227,7,-0.439216,-0.890196,0.027451,0,62,b6380
2026-05-18T04:12:23.135+00:00,1779077543135986000,426,R,8215,9988,9600,11332,8215,9988,9600,11332,23341,26571,23405,23956,-116,-229,6,-0.454902,-0.898039,0.023529,0,62,c6380
2026-05-18T04:12:23.136+00:00,1779077543136153000,427,R,8215,9990,9603,11335,8215,9990,9603,11335,23340,26567,23405,23958,-107,-234,16,-0.419608,-0.917647,0.062745,0,62,d6380
2026-05-18T04:12:23.136+00:00,1779077543136232000,428,R,8215,9990,9604,11336,8215,9990,9604,11336,23339,26577,23405,23957,-111,-231,12,-0.435294,-0.905882,0.047059,0,62,e6380
2026-05-18T04:12:23.136+00:00,1779077543136300000,429,R,8217,9998,9613,11343,8217,9998,9613,11343,23351,26599,23413,23958,-113,-229,8,-0.443137,-0.898039,0.031373,0,62,56440
2026-05-18T04:12:23.136+00:00,1779077543136362000,430,R,8219,10000,9607,11335,8219,10000,9607,11335,23351,26601,23416,23967,-105,-230,14,-0.411765,-0.901961,0.054902,0,62,66440
2026-05-18T04:12:23.136+00:00,1779077543136428000,431,R,8221,9997,9617,11343,8221,9997,9617,11343,23357,26605,23418,23962,-111,-228,5,-0.435294,-0.894118,0.019608,0,62,76440
2026-05-18T04:12:23.287+00:00,1779077543287283000,432,R,8222,10002,9621,11342,8222,10002,9621,11342,23355,26613,23417,23963,-108,-232,11,-0.423529,-0.909804,0.043137,0,62,86440
2026-05-18T04:12:23.287+00:00,1779077543287435000,433,R,8225,10002,9622,11342,8225,10002,9622,11342,23359,26620,23423,23965,-113,-232,7,-0.443137,-0.909804,0.027451,0,62,96440
2026-05-18T04:12:23.287+00:00,1779077543287510000,434,R,8230,10008,9634,11352,8230,10008,9634,11352,23369,26643,23431,23972,-110,-230,8,-0.431373,-0.901961,0.031373,0,62,06500
2026-05-18T04:12:23.287+00:00,1779077543287574000,435,R,8228,10009,9633,11352,8228,10009,9633,11352,23369,26643,23433,23971,-111,-229,8,-0.435294,-0.898039,0.031373,0,62,16500
2026-05-18T04:12:23.287+00:00,1779077543287637000,436,R,8230,10007,9633,11349,8230,10007,9633,11349,23373,26642,23431,23967,-111,-232,9,-0.435294,-0.909804,0.035294,0,62,26500
2026-05-18T04:12:23.437+00:00,1779077543437495000,437,R,8234,10006,9642,11347,8234,10006,9642,11347,23365,26645,23432,23971,-112,-230,8,-0.439216,-0.901961,0.031373,0,62,36500
2026-05-18T04:12:23.437+00:00,1779077543437637000,438,R,8230,10004,9635,11343,8230,10004,9635,11343,23368,26642,23427,23964,-110,-232,10,-0.431373,-0.909804,0.039216,0,62,46500
2026-05-18T04:12:23.437+00:00,1779077543437713000,439,R,8213,9988,9613,11331,8213,9988,9613,11331,23345,26623,23413,23975,-109,-232,6,-0.427451,-0.909804,0.023529,0,62,c6570
2026-05-18T04:12:23.437+00:00,1779077543437779000,440,R,8212,9982,9614,11338,8212,9982,9614,11338,23339,26626,23412,23994,-108,-231,8,-0.423529,-0.905882,0.031373,0,62,d6570
2026-05-18T04:12:23.437+00:00,1779077543437842000,441,R,8214,9983,9613,11347,8214,9983,9613,11347,23333,26623,23411,24013,-111,-230,7,-0.435294,-0.901961,0.027451,0,62,e6570
2026-05-18T04:12:23.586+00:00,1779077543586724000,442,R,8208,9983,9608,11355,8208,9983,9608,11355,23330,26625,23410,24031,-108,-230,7,-0.423529,-0.901961,0.027451,0,62,f6570
2026-05-18T04:12:23.586+00:00,1779077543586837000,443,R,8207,9980,9608,11364,8207,9980,9608,11364,23326,26625,23409,24054,-107,-232,10,-0.419608,-0.909804,0.039216,0,62,06570
2026-05-18T04:12:23.586+00:00,1779077543586910000,444,R,8205,9980,9606,11372,8205,9980,9606,11372,23322,26627,23411,24074,-109,-229,7,-0.427451,-0.898039,0.027451,0,62,16570
2026-05-18T04:12:23.586+00:00,1779077543586976000,445,R,8195,9973,9598,11425,8195,9973,9598,11425,23294,26627,23406,24205,-109,-231,9,-0.427451,-0.905882,0.035294,0,62,86630
2026-05-18T04:12:23.587+00:00,1779077543587039000,446,R,8193,9973,9595,11424,8193,9973,9595,11424,23290,26630,23405,24215,-107,-232,11,-0.419608,-0.909804,0.043137,0,62,96630
2026-05-18T04:12:23.736+00:00,1779077543736444000,447,R,8192,9973,9595,11421,8192,9973,9595,11421,23291,26627,23407,24210,-107,-231,8,-0.419608,-0.905882,0.031373,0,62,a6630
2026-05-18T04:12:23.736+00:00,1779077543736483000,448,R,8194,9973,9597,11417,8194,9973,9597,11417,23292,26632,23408,24207,-107,-230,8,-0.419608,-0.901961,0.031373,0,62,b6630
2026-05-18T04:12:23.736+00:00,1779077543736500000,449,R,8192,9968,9597,11411,8192,9968,9597,11411,23293,26632,23406,24201,-106,-231,9,-0.415686,-0.905882,0.035294,0,62,c6630
2026-05-18T04:12:23.736+00:00,1779077543736513000,450,R,8195,9977,9602,11385,8195,9977,9602,11385,23305,26633,23409,24125,-110,-231,8,-0.431373,-0.905882,0.031373,0,62,46700
2026-05-18T04:12:23.736+00:00,1779077543736607000,451,R,8197,9973,9603,11379,8197,9973,9603,11379,23304,26635,23409,24113,-109,-231,7,-0.427451,-0.905882,0.027451,0,62,56700
2026-05-18T04:12:23.736+00:00,1779077543736623000,452,R,8198,9976,9600,11378,8198,9976,9600,11378,23304,26634,23412,24109,-108,-233,8,-0.423529,-0.913725,0.031373,0,62,66700
2026-05-18T04:12:23.886+00:00,1779077543886308000,453,R,8195,9977,9603,11381,8195,9977,9603,11381,23303,26635,23413,24113,-108,-232,6,-0.423529,-0.909804,0.023529,0,62,76700
2026-05-18T04:12:23.886+00:00,1779077543886347000,454,R,8197,9975,9601,11390,8197,9975,9601,11390,23299,26636,23412,24135,-109,-231,8,-0.427451,-0.905882,0.031373,0,62,86700
2026-05-18T04:12:23.886+00:00,1779077543886363000,455,R,8197,9972,9602,11491,8197,9972,9602,11491,23301,26674,23412,24363,-101,-234,5,-0.396078,-0.917647,0.019608,0,62,06770
2026-05-18T04:12:23.886+00:00,1779077543886377000,456,R,8198,9971,9610,11494,8198,9971,9610,11494,23302,26680,23409,24371,-108,-230,7,-0.423529,-0.901961,0.027451,0,62,16770
2026-05-18T04:12:23.886+00:00,1779077543886390000,457,R,8199,9973,9613,11497,8199,9973,9613,11497,23299,26678,23411,24379,-107,-228,6,-0.419608,-0.894118,0.023529,0,62,26770
2026-05-18T04:12:24.189+00:00,1779077544189525000,458,R,8198,9973,9613,11500,8198,9973,9613,11500,23304,26681,23412,24382,-112,-229,7,-0.439216,-0.898039,0.027451,0,62,36770
2026-05-18T04:12:24.189+00:00,1779077544189648000,459,R,8196,9975,9609,11503,8196,9975,9609,11503,23299,26681,23419,24382,-107,-232,9,-0.419608,-0.909804,0.035294,0,62,46770
2026-05-18T04:12:24.189+00:00,1779077544189722000,460,R,8200,9978,9608,11499,8200,9978,9608,11499,23300,26664,23425,24379,-107,-234,9,-0.419608,-0.917647,0.035294,0,62,b6830
2026-05-18T04:12:24.189+00:00,1779077544189796000,461,R,8201,9979,9603,11499,8201,9979,9603,11499,23296,26663,23423,24373,-109,-231,8,-0.427451,-0.905882,0.031373,0,62,c6830
2026-05-18T04:12:24.189+00:00,1779077544189863000,462,R,8195,9977,9599,11486,8195,9977,9599,11486,23297,26663,23421,24370,-106,-231,6,-0.415686,-0.905882,0.023529,0,62,d6830
2026-05-18T04:12:24.337+00:00,1779077544337331000,463,R,8200,9977,9604,11493,8200,9977,9604,11493,23299,26658,23423,24368,-106,-232,8,-0.415686,-0.909804,0.031373,0,62,e6830
2026-05-18T04:12:24.337+00:00,1779077544337364000,464,R,8202,9980,9605,11491,8202,9980,9605,11491,23299,26660,23423,24360,-107,-231,7,-0.419608,-0.905882,0.027451,0,62,f6830
2026-05-18T04:12:24.337+00:00,1779077544337380000,465,R,8202,9979,9604,11493,8202,9979,9604,11493,23300,26656,23421,24357,-108,-231,6,-0.423529,-0.905882,0.023529,0,62,06830
2026-05-18T04:12:24.337+00:00,1779077544337394000,466,R,8202,9989,9607,11474,8202,9989,9607,11474,23301,26656,23435,24312,-109,-231,4,-0.427451,-0.905882,0.015686,0,62,66880
2026-05-18T04:12:24.337+00:00,1779077544337407000,467,R,8203,9989,9606,11467,8203,9989,9606,11467,23305,26655,23435,24302,-104,-231,7,-0.407843,-0.905882,0.027451,0,62,76880
2026-05-18T04:12:24.487+00:00,1779077544487449000,468,R,8197,9982,9593,11449,8197,9982,9593,11449,23302,26655,23439,24286,-107,-235,6,-0.419608,-0.921569,0.023529,0,62,86880
2026-05-18T04:12:24.487+00:00,1779077544487485000,469,R,8202,9986,9604,11453,8202,9986,9604,11453,23300,26647,23433,24267,-109,-232,5,-0.427451,-0.909804,0.019608,0,62,96880
2026-05-18T04:12:24.487+00:00,1779077544487502000,470,R,8200,9987,9601,11439,8200,9987,9601,11439,23299,26646,23435,24243,-108,-231,6,-0.423529,-0.905882,0.023529,0,62,a6880
2026-05-18T04:12:24.487+00:00,1779077544487516000,471,R,8190,9973,9592,11392,8190,9973,9592,11392,23293,26624,23416,24160,-108,-232,5,-0.423529,-0.909804,0.019608,0,62,16940
2026-05-18T04:12:24.487+00:00,1779077544487528000,472,R,8190,9969,9592,11385,8190,9969,9592,11385,23294,26628,23417,24152,-107,-233,4,-0.419608,-0.913725,0.015686,0,62,26940
2026-05-18T04:12:24.487+00:00,1779077544487541000,473,R,8187,9969,9590,11384,8187,9969,9590,11384,23292,26621,23414,24143,-108,-231,5,-0.423529,-0.905882,0.019608,0,62,36940
2026-05-18T04:12:24.786+00:00,1779077544786532000,474,R,8190,9970,9588,11384,8190,9970,9588,11384,23288,26624,23411,24139,-107,-231,5,-0.419608,-0.905882,0.019608,0,62,46940
2026-05-18T04:12:24.786+00:00,1779077544786576000,475,R,8186,9967,9590,11377,8186,9967,9590,11377,23292,26621,23415,24132,-108,-231,5,-0.423529,-0.905882,0.019608,0,62,56940
2026-05-18T04:12:24.786+00:00,1779077544786595000,476,R,8184,9966,9588,11361,8184,9966,9588,11361,23284,26617,23409,24095,-108,-231,5,-0.423529,-0.905882,0.019608,0,62,d7010
2026-05-18T04:12:24.786+00:00,1779077544786610000,477,R,8181,9971,9588,11360,8181,9971,9588,11360,23285,26612,23407,24094,-110,-231,5,-0.431373,-0.905882,0.019608,0,62,e7010
2026-05-18T04:12:24.786+00:00,1779077544786624000,478,R,8179,9965,9586,11355,8179,9965,9586,11355,23283,26613,23409,24091,-108,-229,4,-0.423529,-0.898039,0.015686,0,62,f7010
2026-05-18T04:12:24.936+00:00,1779077544936599000,479,R,8181,9966,9582,11355,8181,9966,9582,11355,23284,26606,23409,24086,-109,-230,5,-0.427451,-0.901961,0.019608,0,62,07010
2026-05-18T04:12:24.936+00:00,1779077544936646000,480,R,8183,9966,9583,11355,8183,9966,9583,11355,23280,26607,23404,24084,-108,-230,5,-0.423529,-0.901961,0.019608,0,62,17010
2026-05-18T04:12:24.936+00:00,1779077544936666000,481,R,8179,9965,9583,11351,8179,9965,9583,11351,23277,26601,23402,24076,-110,-232,5,-0.431373,-0.909804,0.019608,0,62,87070
2026-05-18T04:12:24.936+00:00,1779077544936683000,482,R,8177,9966,9583,11351,8177,9966,9583,11351,23279,26602,23407,24077,-110,-232,5,-0.431373,-0.909804,0.019608,0,62,97070
2026-05-18T04:12:24.936+00:00,1779077544936698000,483,R,8177,9966,9582,11353,8177,9966,9582,11353,23275,26603,23407,24079,-110,-233,4,-0.431373,-0.913725,0.015686,0,62,a7070
2026-05-18T04:12:25.236+00:00,1779077545237020000,484,R,8178,9964,9583,11352,8178,9964,9583,11352,23280,26608,23408,24083,-111,-232,5,-0.435294,-0.909804,0.019608,0,62,b7070
2026-05-18T04:12:25.237+00:00,1779077545237120000,485,R,8179,9965,9584,11352,8179,9965,9584,11352,23279,26607,23407,24081,-111,-232,5,-0.435294,-0.909804,0.019608,0,62,c7070
2026-05-18T04:12:25.237+00:00,1779077545237155000,486,R,8178,9969,9584,11354,8178,9969,9584,11354,23279,26608,23409,24084,-111,-234,4,-0.435294,-0.917647,0.015686,0,62,d7070
2026-05-18T04:12:25.237+00:00,1779077545237181000,487,R,8182,9973,9588,11354,8182,9973,9588,11354,23282,26614,23418,24083,-107,-230,6,-0.419608,-0.901961,0.023529,0,62,37120
2026-05-18T04:12:25.237+00:00,1779077545237205000,488,R,8181,9974,9590,11358,8181,9974,9590,11358,23281,26617,23418,24087,-108,-230,7,-0.423529,-0.901961,0.027451,0,62,47120
2026-05-18T04:12:25.387+00:00,1779077545387341000,489,R,8183,9977,9599,11366,8183,9977,9599,11366,23286,26621,23416,24081,-106,-230,6,-0.415686,-0.901961,0.023529,0,62,57120
2026-05-18T04:12:25.387+00:00,1779077545387492000,490,R,8182,9973,9591,11353,8182,9973,9591,11353,23283,26623,23415,24081,-107,-230,7,-0.419608,-0.901961,0.027451,0,62,67120
2026-05-18T04:12:25.387+00:00,1779077545387564000,491,R,8184,9973,9590,11356,8184,9973,9590,11356,23285,26622,23421,24084,-107,-231,6,-0.419608,-0.905882,0.023529,0,62,77120
2026-05-18T04:12:25.387+00:00,1779077545387629000,492,R,8187,9981,9597,11365,8187,9981,9597,11365,23287,26631,23428,24093,-107,-230,7,-0.419608,-0.901961,0.027451,0,62,f7190
2026-05-18T04:12:25.387+00:00,1779077545387691000,493,R,8186,9980,9595,11366,8186,9980,9595,11366,23290,26631,23426,24089,-107,-231,6,-0.419608,-0.905882,0.023529,0,62,07190
2026-05-18T04:12:25.387+00:00,1779077545387753000,494,R,8187,9980,9600,11365,8187,9980,9600,11365,23292,26632,23427,24092,-105,-231,5,-0.411765,-0.905882,0.019608,0,62,17190
2026-05-18T04:12:25.537+00:00,1779077545537783000,495,R,8187,9981,9598,11364,8187,9981,9598,11364,23286,26635,23429,24092,-106,-231,4,-0.415686,-0.905882,0.015686,0,62,27190
2026-05-18T04:12:25.537+00:00,1779077545537845000,496,R,8188,9982,9600,11367,8188,9982,9600,11367,23294,26635,23429,24094,-106,-232,4,-0.415686,-0.909804,0.015686,0,62,37190
2026-05-18T04:12:25.537+00:00,1779077545537871000,497,R,8192,9987,9605,11368,8192,9987,9605,11368,23301,26648,23439,24092,-109,-231,5,-0.427451,-0.905882,0.019608,0,62,a7250
2026-05-18T04:12:25.537+00:00,1779077545537976000,498,R,8192,9989,9607,11378,8192,9989,9607,11378,23304,26646,23434,24093,-110,-231,4,-0.431373,-0.905882,0.015686,0,62,b7250
2026-05-18T04:12:25.537+00:00,1779077545538000000,499,R,8194,9987,9609,11367,8194,9987,9609,11367,23301,26644,23436,24090,-110,-232,4,-0.431373,-0.909804,0.015686,0,62,c7250
2026-05-18T04:12:25.687+00:00,1779077545687645000,500,R,8187,9987,9598,11366,8187,9987,9598,11366,23301,26644,23439,24087,-109,-231,4,-0.427451,-0.905882,0.015686,0,62,d7250
2026-05-18T04:12:25.687+00:00,1779077545687696000,501,R,8193,9985,9605,11362,8193,9985,9605,11362,23306,26646,23431,24078,-110,-233,4,-0.431373,-0.913725,0.015686,0,62,e7250
2026-05-18T04:12:25.687+00:00,1779077545687723000,502,R,8186,9970,9597,11334,8186,9970,9597,11334,23291,26627,23413,24038,-109,-231,4,-0.427451,-0.905882,0.015686,0,62,57310
2026-05-18T04:12:25.687+00:00,1779077545687746000,503,R,8183,9966,9595,11330,8183,9966,9595,11330,23294,26627,23413,24039,-108,-231,5,-0.423529,-0.905882,0.019608,0,62,67310
2026-05-18T04:12:25.687+00:00,1779077545687767000,504,R,8185,9966,9595,11328,8185,9966,9595,11328,23287,26626,23410,24033,-108,-231,5,-0.423529,-0.905882,0.019608,0,62,77310
2026-05-18T04:12:25.837+00:00,1779077545837800000,505,R,8183,9964,9593,11327,8183,9964,9593,11327,23292,26625,23408,24029,-109,-231,5,-0.427451,-0.905882,0.019608,0,62,87310
2026-05-18T04:12:25.837+00:00,1779077545837900000,506,R,8183,9964,9593,11324,8183,9964,9593,11324,23289,26623,23408,24024,-108,-230,5,-0.423529,-0.901961,0.019608,0,62,97310
2026-05-18T04:12:25.837+00:00,1779077545837958000,507,R,8176,9959,9592,11311,8176,9959,9592,11311,23290,26626,23407,24021,-110,-231,6,-0.431373,-0.905882,0.023529,0,62,a7310
2026-05-18T04:12:25.837+00:00,1779077545838004000,508,R,8180,9965,9592,11316,8180,9965,9592,11316,23289,26618,23405,24007,-108,-232,7,-0.423529,-0.909804,0.027451,0,62,07360
2026-05-18T04:12:25.838+00:00,1779077545838048000,509,R,8181,9963,9593,11316,8181,9963,9593,11316,23292,26622,23407,24006,-108,-232,7,-0.423529,-0.909804,0.027451,0,62,17360
2026-05-18T04:12:25.987+00:00,1779077545987815000,510,R,8181,9963,9593,11314,8181,9963,9593,11314,23293,26621,23407,24005,-108,-232,6,-0.423529,-0.909804,0.023529,0,62,27360
2026-05-18T04:12:25.987+00:00,1779077545987873000,511,R,8180,9962,9591,11314,8180,9962,9591,11314,23291,26621,23408,24004,-107,-232,7,-0.419608,-0.909804,0.027451,0,62,37360
2026-05-18T04:12:25.987+00:00,1779077545987903000,512,R,8182,9962,9591,11312,8182,9962,9591,11312,23293,26622,23407,24005,-107,-230,7,-0.419608,-0.901961,0.027451,0,62,47360
2026-05-18T04:12:25.987+00:00,1779077545987929000,513,R,8183,9961,9594,11314,8183,9961,9594,11314,23294,26620,23406,23997,-109,-231,5,-0.427451,-0.905882,0.019608,0,62,d7440
2026-05-18T04:12:25.987+00:00,1779077545987956000,514,R,8180,9964,9595,11311,8180,9964,9595,11311,23295,26621,23404,23995,-109,-231,5,-0.427451,-0.905882,0.019608,0,62,e7440
2026-05-18T04:12:25.987+00:00,1779077545987980000,515,R,8184,9962,9595,11312,8184,9962,9595,11312,23296,26623,23410,23996,-109,-230,6,-0.427451,-0.901961,0.023529,0,62,f7440
2026-05-18T04:12:26.287+00:00,1779077546287591000,516,R,8182,9966,9596,11312,8182,9966,9596,11312,23296,26623,23409,23995,-108,-230,5,-0.423529,-0.901961,0.019608,0,62,07440
2026-05-18T04:12:26.287+00:00,1779077546287656000,517,R,8182,9965,9596,11312,8182,9965,9596,11312,23293,26621,23405,23997,-108,-230,6,-0.423529,-0.901961,0.023529,0,62,17440
2026-05-18T04:12:26.287+00:00,1779077546287685000,518,R,8185,9969,9599,11315,8185,9969,9599,11315,23303,26633,23416,23997,-109,-230,6,-0.427451,-0.901961,0.023529,0,62,87500
2026-05-18T04:12:26.287+00:00,1779077546287711000,519,R,8187,9971,9599,11317,8187,9971,9599,11317,23302,26621,23416,23996,-109,-230,6,-0.427451,-0.901961,0.023529,0,62,97500
2026-05-18T04:12:26.287+00:00,1779077546287737000,520,R,8186,9970,9601,11319,8186,9970,9601,11319,23303,26632,23414,24004,-109,-230,6,-0.427451,-0.901961,0.023529,0,62,a7500
2026-05-18T04:12:26.438+00:00,1779077546439009000,521,R,8187,9972,9600,11319,8187,9972,9600,11319,23303,26632,23416,23999,-108,-231,6,-0.423529,-0.905882,0.023529,0,62,b7500
2026-05-18T04:12:26.439+00:00,1779077546439066000,522,R,8188,9973,9602,11321,8188,9973,9602,11321,23305,26634,23415,24000,-109,-231,5,-0.427451,-0.905882,0.019608,0,62,c7500
2026-05-18T04:12:26.439+00:00,1779077546439089000,523,R,8201,9977,9620,11330,8201,9977,9620,11330,23307,26639,23420,24014,-109,-231,5,-0.427451,-0.905882,0.019608,0,62,47570
2026-05-18T04:12:26.439+00:00,1779077546439110000,524,R,8193,9978,9607,11329,8193,9978,9607,11329,23313,26644,23424,24010,-110,-231,6,-0.431373,-0.905882,0.023529,0,62,57570
2026-05-18T04:12:26.439+00:00,1779077546439128000,525,R,8197,9978,9607,11330,8197,9978,9607,11330,23312,26642,23426,24015,-110,-229,7,-0.431373,-0.898039,0.027451,0,62,67570
2026-05-18T04:12:26.589+00:00,1779077546589204000,526,R,8194,9979,9608,11330,8194,9979,9608,11330,23315,26649,23428,24012,-109,-229,7,-0.427451,-0.898039,0.027451,0,62,77570
2026-05-18T04:12:26.589+00:00,1779077546589331000,527,R,8196,9980,9623,11336,8196,9980,9623,11336,23316,26646,23425,24015,-108,-229,6,-0.423529,-0.898039,0.023529,0,62,87570
2026-05-18T04:12:26.589+00:00,1779077546589386000,528,R,8196,9982,9610,11332,8196,9982,9610,11332,23318,26650,23428,24016,-108,-230,6,-0.423529,-0.901961,0.023529,0,62,97570
2026-05-18T04:12:26.589+00:00,1779077546589434000,529,R,8195,9979,9610,11331,8195,9979,9610,11331,23319,26648,23431,24019,-109,-231,6,-0.427451,-0.905882,0.023529,0,62,07630
2026-05-18T04:12:26.589+00:00,1779077546589482000,530,R,8197,9980,9609,11332,8197,9980,9609,11332,23319,26653,23427,24018,-109,-231,6,-0.427451,-0.905882,0.023529,0,62,17630
2026-05-18T04:12:26.589+00:00,1779077546589527000,531,R,8195,9975,9606,11326,8195,9975,9606,11326,23315,26648,23421,24017,-108,-231,6,-0.423529,-0.905882,0.023529,0,62,27630
2026-05-18T04:12:26.738+00:00,1779077546738195000,532,R,8193,9972,9605,11323,8193,9972,9605,11323,23316,26645,23419,24013,-108,-232,5,-0.423529,-0.909804,0.019608,0,62,37630
2026-05-18T04:12:26.738+00:00,1779077546738255000,533,R,8192,9970,9605,11319,8192,9970,9605,11319,23314,26645,23419,24009,-108,-232,4,-0.423529,-0.909804,0.015686,0,62,47630
2026-05-18T04:12:26.738+00:00,1779077546738289000,534,R,8183,9958,9597,11310,8183,9958,9597,11310,23301,26635,23407,23998,-109,-232,6,-0.427451,-0.909804,0.023529,0,62,c7700
2026-05-18T04:12:26.738+00:00,1779077546738317000,535,R,8182,9960,9594,11309,8182,9960,9594,11309,23301,26627,23406,23994,-109,-231,6,-0.427451,-0.905882,0.023529,0,62,d7700
2026-05-18T04:12:26.738+00:00,1779077546738345000,536,R,8182,9959,9596,11309,8182,9959,9596,11309,23301,26628,23407,23994,-109,-232,6,-0.427451,-0.909804,0.023529,0,62,e7700
2026-05-18T04:12:26.887+00:00,1779077546887550000,537,R,8183,9962,9594,11311,8183,9962,9594,11311,23298,26631,23406,23999,-108,-231,5,-0.423529,-0.905882,0.019608,0,62,f7700
2026-05-18T04:12:26.887+00:00,1779077546887588000,538,R,8183,9961,9595,11311,8183,9961,9595,11311,23299,26630,23405,23997,-109,-230,5,-0.427451,-0.901961,0.019608,0,62,07700
2026-05-18T04:12:26.887+00:00,1779077546887608000,539,R,8181,9960,9594,11308,8181,9960,9594,11308,23300,26628,23406,23997,-110,-231,5,-0.431373,-0.905882,0.019608,0,62,77760
2026-05-18T04:12:26.887+00:00,1779077546887625000,540,R,8179,9961,9593,11308,8179,9961,9593,11308,23295,26631,23404,23994,-109,-231,6,-0.427451,-0.905882,0.023529,0,62,87760
2026-05-18T04:12:26.887+00:00,1779077546887641000,541,R,8179,9962,9593,11305,8179,9962,9593,11305,23292,26631,23406,23997,-110,-230,6,-0.431373,-0.901961,0.023529,0,62,97760
2026-05-18T04:12:27.038+00:00,1779077547038845000,542,R,8181,9960,9596,11308,8181,9960,9596,11308,23299,26629,23402,23991,-111,-229,5,-0.435294,-0.898039,0.019608,0,62,a7760
2026-05-18T04:12:27.039+00:00,1779077547039013000,543,R,8181,9960,9595,11309,8181,9960,9595,11309,23298,26630,23405,23994,-111,-230,6,-0.435294,-0.901961,0.023529,0,62,b7760
2026-05-18T04:12:27.039+00:00,1779077547039089000,544,R,8181,9963,9593,11305,8181,9963,9593,11305,23297,26630,23407,23995,-111,-229,6,-0.435294,-0.898039,0.023529,0,62,c7760
2026-05-18T04:12:27.039+00:00,1779077547039156000,545,R,8182,9965,9594,11308,8182,9965,9594,11308,23301,26630,23407,23997,-112,-230,7,-0.439216,-0.901961,0.027451,0,62,27810
2026-05-18T04:12:27.039+00:00,1779077547039235000,546,R,8193,9958,9607,11313,8193,9958,9607,11313,23303,26635,23410,23999,-111,-229,6,-0.435294,-0.898039,0.023529,0,62,37810
2026-05-18T04:12:27.189+00:00,1779077547189646000,547,R,8184,9965,9598,11314,8184,9965,9598,11314,23299,26631,23411,23997,-111,-229,7,-0.435294,-0.898039,0.027451,0,62,47810
2026-05-18T04:12:27.189+00:00,1779077547189799000,548,R,8181,9965,9596,11315,8181,9965,9596,11315,23301,26636,23414,24001,-112,-229,7,-0.439216,-0.898039,0.027451,0,62,57810
2026-05-18T04:12:27.189+00:00,1779077547189872000,549,R,8182,9964,9596,11313,8182,9964,9596,11313,23301,26632,23411,24003,-112,-228,8,-0.439216,-0.894118,0.031373,0,62,67810
2026-05-18T04:12:27.189+00:00,1779077547189937000,550,R,8186,9971,9599,11321,8186,9971,9599,11321,23308,26644,23419,24012,-111,-230,7,-0.435294,-0.901961,0.027451,0,62,d7870
2026-05-18T04:12:27.189+00:00,1779077547190001000,551,R,8185,9970,9601,11322,8185,9970,9601,11322,23307,26643,23416,24011,-111,-230,6,-0.435294,-0.901961,0.023529,0,62,e7870
2026-05-18T04:12:27.190+00:00,1779077547190063000,552,R,8186,9967,9603,11323,8186,9967,9603,11323,23307,26644,23421,24017,-111,-230,7,-0.435294,-0.901961,0.027451,0,62,f7870
2026-05-18T04:12:27.339+00:00,1779077547339332000,553,R,8189,9975,9600,11329,8189,9975,9600,11329,23310,26643,23425,24014,-110,-230,7,-0.431373,-0.901961,0.027451,0,62,07870
2026-05-18T04:12:27.339+00:00,1779077547339445000,554,R,8186,9974,9599,11325,8186,9974,9599,11325,23306,26644,23424,24015,-110,-231,6,-0.431373,-0.905882,0.023529,0,62,17870
2026-05-18T04:12:27.339+00:00,1779077547339488000,555,R,8192,9980,9607,11333,8192,9980,9607,11333,23314,26650,23427,24021,-109,-230,7,-0.427451,-0.901961,0.027451,0,62,97940
2026-05-18T04:12:27.339+00:00,1779077547339535000,556,R,8193,9977,9609,11333,8193,9977,9609,11333,23319,26654,23428,24025,-111,-230,7,-0.435294,-0.901961,0.027451,0,62,a7940
2026-05-18T04:12:27.339+00:00,1779077547339568000,557,R,8197,9979,9607,11337,8197,9979,9607,11337,23317,26653,23429,24024,-112,-231,8,-0.439216,-0.905882,0.031373,0,62,b7940
2026-05-18T04:12:27.488+00:00,1779077547488154000,558,R,8190,9973,9605,11333,8190,9973,9605,11333,23324,26651,23427,24020,-112,-229,8,-0.439216,-0.898039,0.031373,0,62,c7940
2026-05-18T04:12:27.488+00:00,1779077547488199000,559,R,8190,9974,9606,11328,8190,9974,9606,11328,23316,26649,23427,24020,-111,-230,7,-0.435294,-0.901961,0.027451,0,62,d7940
2026-05-18T04:12:27.488+00:00,1779077547488222000,560,R,8179,9960,9592,11305,8179,9960,9592,11305,23298,26633,23407,23995,-110,-230,7,-0.431373,-0.901961,0.027451,0,62,48000
2026-05-18T04:12:27.488+00:00,1779077547488241000,561,R,8179,9957,9593,11304,8179,9957,9593,11304,23301,26630,23404,23991,-110,-230,7,-0.431373,-0.901961,0.027451,0,62,58000
2026-05-18T04:12:27.488+00:00,1779077547488259000,562,R,8178,9956,9590,11306,8178,9956,9590,11306,23299,26632,23402,23991,-109,-230,6,-0.427451,-0.901961,0.023529,0,62,68000
2026-05-18T04:12:27.638+00:00,1779077547638638000,563,R,8178,9955,9590,11304,8178,9955,9590,11304,23299,26630,23400,23991,-111,-230,7,-0.435294,-0.901961,0.027451,0,62,78000
2026-05-18T04:12:27.638+00:00,1779077547638854000,564,R,8178,9954,9589,11299,8178,9954,9589,11299,23299,26629,23401,23992,-111,-231,7,-0.435294,-0.905882,0.027451,0,62,88000
2026-05-18T04:12:27.638+00:00,1779077547638889000,565,R,8177,9951,9588,11299,8177,9951,9588,11299,23295,26627,23400,23987,-112,-229,7,-0.439216,-0.898039,0.027451,0,62,98000
2026-05-18T04:12:27.638+00:00,1779077547638916000,566,R,8176,9953,9587,11302,8176,9953,9587,11302,23293,26626,23401,23987,-112,-230,7,-0.439216,-0.901961,0.027451,0,62,f8050
2026-05-18T04:12:27.638+00:00,1779077547638943000,567,R,8175,9951,9587,11299,8175,9951,9587,11299,23292,26625,23400,23990,-111,-230,7,-0.435294,-0.901961,0.027451,0,62,08050
2026-05-18T04:12:27.788+00:00,1779077547788226000,568,R,8187,9953,9605,11311,8187,9953,9605,11311,23294,26624,23400,23985,-112,-230,6,-0.439216,-0.901961,0.023529,0,62,18050
2026-05-18T04:12:27.788+00:00,1779077547788299000,569,R,8174,9952,9587,11297,8174,9952,9587,11297,23292,26622,23399,23985,-111,-230,6,-0.435294,-0.901961,0.023529,0,62,28050
2026-05-18T04:12:27.788+00:00,1779077547788331000,570,R,8166,9941,9574,11290,8166,9941,9574,11290,23287,26615,23397,23986,-111,-230,7,-0.435294,-0.901961,0.027451,0,62,38050
2026-05-18T04:12:27.788+00:00,1779077547788358000,571,R,8172,9951,9585,11299,8172,9951,9585,11299,23290,26618,23398,23983,-111,-230,6,-0.435294,-0.901961,0.023529,0,62,a8110
2026-05-18T04:12:27.788+00:00,1779077547788384000,572,R,8173,9951,9582,11305,8173,9951,9582,11305,23293,26621,23401,23987,-112,-229,7,-0.439216,-0.898039,0.027451,0,62,b8110
2026-05-18T04:12:27.788+00:00,1779077547788499000,573,R,8173,9952,9585,11301,8173,9952,9585,11301,23291,26620,23401,23983,-112,-229,7,-0.439216,-0.898039,0.027451,0,62,c8110
2026-05-18T04:12:27.937+00:00,1779077547937805000,574,R,8172,9952,9587,11299,8172,9952,9587,11299,23292,26623,23401,23990,-112,-229,7,-0.439216,-0.898039,0.027451,0,62,d8110
2026-05-18T04:12:27.937+00:00,1779077547937926000,575,R,8173,9954,9585,11302,8173,9954,9585,11302,23291,26623,23402,23991,-112,-229,7,-0.439216,-0.898039,0.027451,0,62,e8110
2026-05-18T04:12:27.937+00:00,1779077547938002000,576,R,8176,9957,9591,11309,8176,9957,9591,11309,23298,26628,23407,24001,-111,-229,8,-0.435294,-0.898039,0.031373,0,62,68180
2026-05-18T04:12:27.938+00:00,1779077547938067000,577,R,8178,9958,9589,11309,8178,9958,9589,11309,23297,26628,23408,23996,-110,-231,8,-0.431373,-0.905882,0.031373,0,62,78180
2026-05-18T04:12:27.938+00:00,1779077547938134000,578,R,8178,9958,9589,11308,8178,9958,9589,11308,23301,26630,23410,24002,-111,-230,8,-0.435294,-0.901961,0.031373,0,62,88180
2026-05-18T04:12:28.232+00:00,1779077548232168000,579,R,8182,9967,9592,11318,8182,9967,9592,11318,23297,26634,23408,24001,-109,-230,8,-0.427451,-0.901961,0.031373,0,62,98180
2026-05-18T04:12:28.232+00:00,1779077548232290000,580,R,8179,9960,9593,11309,8179,9960,9593,11309,23301,26632,23415,23998,-110,-231,8,-0.431373,-0.905882,0.031373,0,62,a8180
2026-05-18T04:12:28.232+00:00,1779077548232364000,581,R,8179,9962,9596,11317,8179,9962,9596,11317,23305,26633,23420,24013,-108,-229,7,-0.423529,-0.898039,0.027451,0,62,18240
2026-05-18T04:12:28.232+00:00,1779077548232429000,582,R,8178,9964,9594,11319,8178,9964,9594,11319,23308,26640,23420,24011,-109,-229,7,-0.427451,-0.898039,0.027451,0,62,28240
2026-05-18T04:12:28.232+00:00,1779077548232501000,583,R,8181,9965,9595,11322,8181,9965,9595,11322,23307,26641,23423,24011,-109,-229,8,-0.427451,-0.898039,0.031373,0,62,38240
2026-05-18T04:12:28.237+00:00,1779077548237920000,584,R,8181,9965,9596,11318,8181,9965,9596,11318,23307,26640,23422,24015,-108,-230,7,-0.423529,-0.901961,0.027451,0,62,48240
2026-05-18T04:12:28.237+00:00,1779077548237994000,585,R,8183,9969,9599,11322,8183,9969,9599,11322,23309,26644,23423,24012,-109,-230,7,-0.427451,-0.901961,0.027451,0,62,58240
2026-05-18T04:12:28.238+00:00,1779077548238058000,586,R,8183,9969,9597,11324,8183,9969,9597,11324,23308,26648,23425,24015,-109,-231,8,-0.427451,-0.905882,0.031373,0,62,68240
2026-05-18T04:12:28.238+00:00,1779077548238119000,587,R,8181,9963,9595,11315,8181,9963,9595,11315,23311,26639,23423,24010,-108,-231,7,-0.423529,-0.905882,0.027451,0,62,c8290
2026-05-18T04:12:28.238+00:00,1779077548238181000,588,R,8183,9951,9603,11295,8183,9951,9603,11295,23305,26633,23419,24007,-109,-231,7,-0.427451,-0.905882,0.027451,0,62,d8290
2026-05-18T04:12:28.388+00:00,1779077548388356000,589,R,8177,9957,9591,11310,8177,9957,9591,11310,23305,26634,23414,24002,-109,-229,8,-0.427451,-0.898039,0.031373,0,62,e8290
2026-05-18T04:12:28.388+00:00,1779077548388519000,590,R,8177,9956,9589,11304,8177,9956,9589,11304,23301,26632,23410,23998,-108,-230,7,-0.423529,-0.901961,0.027451,0,62,f8290
2026-05-18T04:12:28.388+00:00,1779077548388592000,591,R,8184,9954,9602,11314,8184,9954,9602,11314,23302,26630,23408,23996,-109,-230,6,-0.427451,-0.901961,0.023529,0,62,08290
2026-05-18T04:12:28.388+00:00,1779077548388658000,592,R,8167,9946,9578,11288,8167,9946,9578,11288,23288,26615,23396,23977,-109,-231,6,-0.427451,-0.905882,0.023529,0,62,88360
2026-05-18T04:12:28.388+00:00,1779077548388733000,593,R,8165,9942,9576,11286,8165,9942,9576,11286,23285,26614,23392,23969,-109,-231,6,-0.427451,-0.905882,0.023529,0,62,98360
2026-05-18T04:12:28.388+00:00,1779077548388797000,594,R,8165,9940,9575,11284,8165,9940,9575,11284,23286,26612,23396,23975,-109,-233,7,-0.427451,-0.913725,0.027451,0,62,a8360
