host_time_iso,host_time_unix_ns,sample_index,record_type,ir1,ir2,ir3,ir4,ir1_repeat,ir2_repeat,ir3_repeat,ir4_repeat,red1,red2,red3,red4,accel_x_raw,accel_y_raw,accel_z_raw,accel_x_g,accel_y_g,accel_z_g,reserved,heart_rate,debug
2026-05-18T07:28:39.768+00:00,1779089319769447000,1,R,7821,10699,9307,12005,7821,10699,9307,12005,22322,25837,24441,24870,-111,-226,8,-0.435294,-0.886275,0.031373,0,66,f00
2026-05-18T07:28:39.769+00:00,1779089319769622000,2,R,7819,10698,9307,12006,7819,10698,9307,12006,22321,25838,24443,24871,-111,-226,11,-0.435294,-0.886275,0.043137,0,66,000
2026-05-18T07:28:39.769+00:00,1779089319769662000,3,R,7819,10698,9306,12006,7819,10698,9306,12006,22320,25833,24443,24871,-112,-226,12,-0.439216,-0.886275,0.047059,0,66,100
2026-05-18T07:28:39.769+00:00,1779089319769690000,4,R,7818,10700,9304,12005,7818,10700,9304,12005,22322,25838,24447,24874,-114,-227,12,-0.447059,-0.890196,0.047059,0,66,200
2026-05-18T07:28:39.769+00:00,1779089319769713000,5,R,7824,10702,9313,12007,7824,10702,9313,12007,22322,25832,24449,24874,-116,-227,15,-0.454902,-0.890196,0.058824,0,66,300
2026-05-18T07:28:39.769+00:00,1779089319769736000,6,R,7819,10706,9304,12007,7819,10706,9304,12007,22326,25833,24459,24877,-118,-226,15,-0.462745,-0.886275,0.058824,0,66,400
2026-05-18T07:28:40.069+00:00,1779089320069272000,7,R,7821,10706,9305,12009,7821,10706,9305,12009,22324,25837,24456,24872,-120,-225,13,-0.470588,-0.882353,0.05098,0,66,500
2026-05-18T07:28:40.069+00:00,1779089320069496000,8,R,7820,10705,9306,12009,7820,10705,9306,12009,22325,25836,24459,24881,-119,-225,12,-0.466667,-0.882353,0.047059,0,66,600
2026-05-18T07:28:40.069+00:00,1779089320069593000,9,R,7818,10709,9307,12012,7818,10709,9307,12012,22328,25835,24461,24877,-119,-225,11,-0.466667,-0.882353,0.043137,0,66,700
2026-05-18T07:28:40.069+00:00,1779089320069665000,10,R,7821,10710,9308,12010,7821,10710,9308,12010,22326,25840,24461,24877,-119,-224,12,-0.466667,-0.878431,0.047059,0,66,800
2026-05-18T07:28:40.069+00:00,1779089320069747000,11,R,7822,10710,9308,12013,7822,10710,9308,12013,22332,25840,24461,24879,-121,-224,12,-0.47451,-0.878431,0.047059,0,66,900
2026-05-18T07:28:40.075+00:00,1779089320075853000,12,R,7824,10713,9309,12016,7824,10713,9309,12016,22333,25846,24466,24880,-121,-224,13,-0.47451,-0.878431,0.05098,0,66,a00
2026-05-18T07:28:40.075+00:00,1779089320075932000,13,R,7825,10715,9311,12015,7825,10715,9311,12015,22334,25848,24465,24878,-124,-224,14,-0.486275,-0.878431,0.054902,0,66,b00
2026-05-18T07:28:40.075+00:00,1779089320075970000,14,R,7827,10714,9313,12017,7827,10714,9313,12017,22339,25853,24468,24882,-123,-223,14,-0.482353,-0.87451,0.054902,0,66,c00
2026-05-18T07:28:40.076+00:00,1779089320076005000,15,R,7829,10714,9315,12015,7829,10714,9315,12015,22339,25850,24469,24883,-123,-221,13,-0.482353,-0.866667,0.05098,0,66,d00
2026-05-18T07:28:40.076+00:00,1779089320076039000,16,R,7827,10711,9314,12016,7827,10711,9314,12016,22341,25857,24471,24885,-123,-221,11,-0.482353,-0.866667,0.043137,0,66,e00
2026-05-18T07:28:40.374+00:00,1779089320374125000,17,R,7824,10706,9310,12008,7824,10706,9310,12008,22342,25855,24468,24884,-123,-222,11,-0.482353,-0.870588,0.043137,0,66,f00
2026-05-18T07:28:40.374+00:00,1779089320374287000,18,R,7824,10705,9313,12009,7824,10705,9313,12009,22336,25854,24461,24879,-124,-223,11,-0.486275,-0.87451,0.043137,0,66,000
2026-05-18T07:28:40.374+00:00,1779089320374365000,19,R,7822,10700,9310,12000,7822,10700,9310,12000,22334,25849,24451,24870,-125,-224,12,-0.490196,-0.878431,0.047059,0,66,100
2026-05-18T07:28:40.374+00:00,1779089320374432000,20,R,7819,10695,9308,11996,7819,10695,9308,11996,22330,25849,24448,24864,-126,-223,12,-0.494118,-0.87451,0.047059,0,66,200
2026-05-18T07:28:40.374+00:00,1779089320374506000,21,R,7817,10691,9305,11990,7817,10691,9305,11990,22332,25849,24445,24856,-126,-222,11,-0.494118,-0.870588,0.043137,0,66,300
2026-05-18T07:28:40.672+00:00,1779089320672373000,22,R,7818,10690,9305,11991,7818,10690,9305,11991,22327,25844,24444,24856,-126,-222,12,-0.494118,-0.870588,0.047059,0,66,400
2026-05-18T07:28:40.672+00:00,1779089320672510000,23,R,7818,10689,9305,11985,7818,10689,9305,11985,22328,25845,24443,24853,-125,-220,12,-0.490196,-0.862745,0.047059,0,66,500
2026-05-18T07:28:40.672+00:00,1779089320672587000,24,R,7815,10688,9301,11984,7815,10688,9301,11984,22326,25843,24435,24848,-125,-219,11,-0.490196,-0.858824,0.043137,0,66,600
2026-05-18T07:28:40.672+00:00,1779089320672655000,25,R,7814,10684,9305,11983,7814,10684,9305,11983,22323,25841,24433,24847,-125,-219,10,-0.490196,-0.858824,0.039216,0,66,700
2026-05-18T07:28:40.672+00:00,1779089320672721000,26,R,7813,10685,9301,11981,7813,10685,9301,11981,22320,25842,24432,24845,-125,-220,10,-0.490196,-0.862745,0.039216,0,66,800
2026-05-18T07:28:40.672+00:00,1779089320672784000,27,R,7811,10683,9301,11978,7811,10683,9301,11978,22322,25841,24429,24842,-125,-221,11,-0.490196,-0.866667,0.043137,0,66,900
2026-05-18T07:28:40.967+00:00,1779089320967806000,28,R,7810,10679,9301,11975,7810,10679,9301,11975,22319,25838,24431,24842,-126,-223,10,-0.494118,-0.87451,0.039216,0,66,a00
2026-05-18T07:28:40.967+00:00,1779089320967941000,29,R,7812,10678,9303,11976,7812,10678,9303,11976,22321,25839,24430,24841,-127,-223,11,-0.498039,-0.87451,0.043137,0,66,b00
2026-05-18T07:28:40.968+00:00,1779089320968021000,30,R,7810,10680,9298,11975,7810,10680,9298,11975,22316,25834,24429,24842,-126,-222,10,-0.494118,-0.870588,0.039216,0,66,c00
2026-05-18T07:28:40.968+00:00,1779089320968089000,31,R,7811,10681,9300,11974,7811,10681,9300,11974,22319,25836,24430,24843,-127,-222,9,-0.498039,-0.870588,0.035294,0,66,d00
2026-05-18T07:28:40.968+00:00,1779089320968170000,32,R,7810,10678,9295,11974,7810,10678,9295,11974,22315,25837,24431,24838,-127,-223,9,-0.498039,-0.87451,0.035294,0,66,e00
2026-05-18T07:28:40.973+00:00,1779089320973512000,33,R,7806,10677,9297,11974,7806,10677,9297,11974,22316,25832,24427,24834,-128,-222,9,-0.501961,-0.870588,0.035294,0,66,f00
2026-05-18T07:28:40.973+00:00,1779089320973620000,34,R,7807,10679,9298,11974,7807,10679,9298,11974,22314,25836,24426,24837,-128,-222,8,-0.501961,-0.870588,0.031373,0,66,000
2026-05-18T07:28:40.973+00:00,1779089320973692000,35,R,7807,10679,9295,11973,7807,10679,9295,11973,22315,25833,24433,24836,-129,-221,9,-0.505882,-0.866667,0.035294,0,66,100
2026-05-18T07:28:40.973+00:00,1779089320973769000,36,R,7808,10678,9296,11974,7808,10678,9296,11974,22314,25833,24430,24838,-127,-220,8,-0.498039,-0.862745,0.031373,0,66,200
2026-05-18T07:28:40.973+00:00,1779089320973835000,37,R,7812,10680,9296,11973,7812,10680,9296,11973,22320,25836,24433,24841,-128,-219,8,-0.501961,-0.858824,0.031373,0,66,300
2026-05-18T07:28:41.270+00:00,1779089321270599000,38,R,7809,10682,9294,11976,7809,10682,9294,11976,22315,25831,24431,24835,-129,-220,8,-0.505882,-0.862745,0.031373,0,66,400
2026-05-18T07:28:41.270+00:00,1779089321270743000,39,R,7808,10679,9295,11973,7808,10679,9295,11973,22320,25834,24432,24833,-129,-220,8,-0.505882,-0.862745,0.031373,0,66,500
2026-05-18T07:28:41.270+00:00,1779089321270818000,40,R,7809,10679,9293,11972,7809,10679,9293,11972,22317,25835,24433,24835,-130,-220,8,-0.509804,-0.862745,0.031373,0,66,600
2026-05-18T07:28:41.270+00:00,1779089321270885000,41,R,7809,10679,9292,11968,7809,10679,9292,11968,22317,25832,24436,24831,-129,-220,8,-0.505882,-0.862745,0.031373,0,66,700
2026-05-18T07:28:41.270+00:00,1779089321270950000,42,R,7807,10681,9294,11973,7807,10681,9294,11973,22314,25833,24430,24834,-129,-221,7,-0.505882,-0.866667,0.027451,0,66,800
2026-05-18T07:28:41.568+00:00,1779089321568919000,43,R,7809,10680,9296,11974,7809,10680,9296,11974,22315,25834,24435,24832,-129,-221,7,-0.505882,-0.866667,0.027451,0,66,900
2026-05-18T07:28:41.569+00:00,1779089321569024000,44,R,7807,10682,9296,11971,7807,10682,9296,11971,22316,25829,24433,24833,-130,-220,8,-0.509804,-0.862745,0.031373,0,66,a00
2026-05-18T07:28:41.569+00:00,1779089321569060000,45,R,7810,10681,9295,11972,7810,10681,9295,11972,22318,25833,24431,24832,-130,-220,8,-0.509804,-0.862745,0.031373,0,66,b00
2026-05-18T07:28:41.569+00:00,1779089321569092000,46,R,7809,10682,9293,11973,7809,10682,9293,11973,22316,25829,24433,24832,-131,-219,9,-0.513725,-0.858824,0.035294,0,66,c00
2026-05-18T07:28:41.569+00:00,1779089321569121000,47,R,7806,10682,9296,11972,7806,10682,9296,11972,22317,25832,24436,24832,-131,-219,9,-0.513725,-0.858824,0.035294,0,66,d00
2026-05-18T07:28:41.569+00:00,1779089321569150000,48,R,7809,10686,9297,11974,7809,10686,9297,11974,22313,25827,24435,24835,-132,-219,8,-0.517647,-0.858824,0.031373,0,66,e00
2026-05-18T07:28:41.574+00:00,1779089321574354000,49,R,7809,10684,9293,11970,7809,10684,9293,11970,22322,25835,24439,24834,-130,-219,9,-0.509804,-0.858824,0.035294,0,66,f00
2026-05-18T07:28:41.574+00:00,1779089321574414000,50,R,7809,10685,9294,11977,7809,10685,9294,11977,22321,25831,24440,24831,-131,-220,9,-0.513725,-0.862745,0.035294,0,66,000
2026-05-18T07:28:41.574+00:00,1779089321574446000,51,R,7807,10685,9295,11978,7807,10685,9295,11978,22318,25826,24441,24836,-131,-219,8,-0.513725,-0.858824,0.031373,0,66,100
2026-05-18T07:28:41.574+00:00,1779089321574473000,52,R,7809,10689,9292,11975,7809,10689,9292,11975,22322,25831,24446,24834,-131,-219,9,-0.513725,-0.858824,0.035294,0,66,200
2026-05-18T07:28:41.574+00:00,1779089321574500000,53,R,7816,10685,9299,11981,7816,10685,9299,11981,22325,25832,24443,24835,-132,-219,10,-0.517647,-0.858824,0.039216,0,66,300
2026-05-18T07:28:41.871+00:00,1779089321871425000,54,R,7809,10688,9296,11977,7809,10688,9296,11977,22324,25832,24445,24835,-132,-219,11,-0.517647,-0.858824,0.043137,0,66,400
2026-05-18T07:28:41.871+00:00,1779089321871474000,55,R,7811,10687,9296,11979,7811,10687,9296,11979,22323,25838,24445,24839,-134,-219,10,-0.52549,-0.858824,0.039216,0,66,500
2026-05-18T07:28:41.871+00:00,1779089321871500000,56,R,7811,10691,9297,11980,7811,10691,9297,11980,22324,25838,24452,24839,-133,-218,11,-0.521569,-0.854902,0.043137,0,66,600
2026-05-18T07:28:41.871+00:00,1779089321871520000,57,R,7812,10692,9298,11981,7812,10692,9298,11981,22325,25838,24448,24837,-133,-218,11,-0.521569,-0.854902,0.043137,0,66,700
2026-05-18T07:28:41.871+00:00,1779089321871539000,58,R,7812,10693,9296,11982,7812,10693,9296,11982,22330,25839,24454,24841,-134,-218,12,-0.52549,-0.854902,0.047059,0,66,800
2026-05-18T07:28:42.170+00:00,1779089322170573000,59,R,7813,10696,9298,11981,7813,10696,9298,11981,22331,25842,24452,24843,-132,-216,12,-0.517647,-0.847059,0.047059,0,66,900
2026-05-18T07:28:42.170+00:00,1779089322170722000,60,R,7815,10694,9299,11986,7815,10694,9299,11986,22331,25841,24452,24841,-133,-218,12,-0.521569,-0.854902,0.047059,0,66,a00
2026-05-18T07:28:42.170+00:00,1779089322170812000,61,R,7816,10697,9299,11985,7816,10697,9299,11985,22331,25844,24455,24843,-133,-217,13,-0.521569,-0.85098,0.05098,0,66,b00
2026-05-18T07:28:42.170+00:00,1779089322170881000,62,R,7815,10698,9301,11986,7815,10698,9301,11986,22332,25845,24461,24844,-134,-217,14,-0.52549,-0.85098,0.054902,0,66,c00
2026-05-18T07:28:42.170+00:00,1779089322170945000,63,R,7819,10697,9300,11988,7819,10697,9300,11988,22332,25845,24458,24848,-134,-217,14,-0.52549,-0.85098,0.054902,0,66,d00
2026-05-18T07:28:42.469+00:00,1779089322469139000,64,R,7817,10700,9301,11990,7817,10700,9301,11990,22334,25844,24465,24845,-135,-217,14,-0.529412,-0.85098,0.054902,0,66,e00
2026-05-18T07:28:42.469+00:00,1779089322469297000,65,R,7813,10702,9303,11989,7813,10702,9303,11989,22336,25846,24463,24848,-134,-216,15,-0.52549,-0.847059,0.058824,0,66,f00
2026-05-18T07:28:42.469+00:00,1779089322469372000,66,R,7818,10703,9303,11993,7818,10703,9303,11993,22339,25848,24469,24850,-134,-217,15,-0.52549,-0.85098,0.058824,0,66,000
2026-05-18T07:28:42.469+00:00,1779089322469449000,67,R,7818,10705,9304,11992,7818,10705,9304,11992,22339,25849,24467,24852,-134,-216,16,-0.52549,-0.847059,0.062745,0,66,100
2026-05-18T07:28:42.469+00:00,1779089322469516000,68,R,7820,10705,9302,11995,7820,10705,9302,11995,22341,25846,24471,24853,-134,-216,15,-0.52549,-0.847059,0.058824,0,66,200
2026-05-18T07:28:42.469+00:00,1779089322469581000,69,R,7821,10707,9303,11996,7821,10707,9303,11996,22344,25851,24474,24857,-133,-217,14,-0.521569,-0.85098,0.054902,0,67,300
2026-05-18T07:28:42.617+00:00,1779089322617457000,70,R,7823,10707,9303,11996,7823,10707,9303,11996,22342,25851,24473,24857,-134,-216,15,-0.52549,-0.847059,0.058824,0,67,400
2026-05-18T07:28:42.617+00:00,1779089322617509000,71,R,7824,10712,9307,11998,7824,10712,9307,11998,22346,25854,24478,24856,-135,-216,15,-0.529412,-0.847059,0.058824,0,67,500
2026-05-18T07:28:42.617+00:00,1779089322617535000,72,R,7823,10713,9306,11999,7823,10713,9306,11999,22345,25854,24479,24857,-133,-217,16,-0.521569,-0.85098,0.062745,0,67,600
2026-05-18T07:28:42.617+00:00,1779089322617558000,73,R,7826,10715,9306,12002,7826,10715,9306,12002,22350,25855,24483,24859,-134,-217,16,-0.52549,-0.85098,0.062745,0,67,700
2026-05-18T07:28:42.617+00:00,1779089322617579000,74,R,7825,10717,9307,12004,7825,10717,9307,12004,22349,25859,24482,24863,-135,-216,17,-0.529412,-0.847059,0.066667,0,67,800
2026-05-18T07:28:42.771+00:00,1779089322771150000,75,R,7826,10717,9307,12004,7826,10717,9307,12004,22348,25856,24485,24862,-135,-216,16,-0.529412,-0.847059,0.062745,0,67,900
2026-05-18T07:28:42.771+00:00,1779089322771543000,76,R,7827,10717,9309,12005,7827,10717,9309,12005,22352,25861,24489,24865,-136,-215,17,-0.533333,-0.843137,0.066667,0,67,a00
2026-05-18T07:28:42.771+00:00,1779089322771624000,77,R,7827,10719,9310,12005,7827,10719,9310,12005,22353,25859,24486,24867,-135,-215,17,-0.529412,-0.843137,0.066667,0,67,b00
2026-05-18T07:28:42.771+00:00,1779089322771693000,78,R,7828,10713,9307,12003,7828,10713,9307,12003,22354,25858,24485,24867,-136,-215,15,-0.533333,-0.843137,0.058824,0,67,c00
2026-05-18T07:28:42.771+00:00,1779089322771759000,79,R,7826,10711,9306,11998,7826,10711,9306,11998,22348,25855,24483,24862,-136,-216,17,-0.533333,-0.847059,0.066667,0,67,d00
2026-05-18T07:28:43.067+00:00,1779089323067831000,80,R,7824,10705,9302,11994,7824,10705,9302,11994,22350,25850,24477,24859,-136,-215,16,-0.533333,-0.843137,0.062745,0,67,e00
2026-05-18T07:28:43.067+00:00,1779089323067947000,81,R,7821,10702,9301,11986,7821,10702,9301,11986,22343,25848,24469,24852,-137,-215,16,-0.537255,-0.843137,0.062745,0,67,f00
2026-05-18T07:28:43.068+00:00,1779089323068021000,82,R,7820,10699,9300,11982,7820,10699,9300,11982,22347,25845,24465,24845,-136,-215,16,-0.533333,-0.843137,0.062745,0,67,000
2026-05-18T07:28:43.068+00:00,1779089323068087000,83,R,7818,10695,9299,11980,7818,10695,9299,11980,22343,25846,24461,24840,-136,-215,16,-0.533333,-0.843137,0.062745,0,67,100
2026-05-18T07:28:43.068+00:00,1779089323068152000,84,R,7816,10695,9297,11977,7816,10695,9297,11977,22341,25845,24460,24840,-135,-214,16,-0.529412,-0.839216,0.062745,0,67,200
2026-05-18T07:28:43.073+00:00,1779089323074018000,85,R,7816,10692,9295,11978,7816,10692,9295,11978,22339,25845,24459,24835,-135,-213,15,-0.529412,-0.835294,0.058824,0,67,300
2026-05-18T07:28:43.074+00:00,1779089323074091000,86,R,7815,10691,9295,11974,7815,10691,9295,11974,22342,25841,24457,24833,-137,-213,16,-0.537255,-0.835294,0.062745,0,67,400
2026-05-18T07:28:43.074+00:00,1779089323074155000,87,R,7814,10691,9294,11972,7814,10691,9294,11972,22337,25839,24456,24836,-137,-214,17,-0.537255,-0.839216,0.066667,0,67,500
2026-05-18T07:28:43.074+00:00,1779089323074203000,88,R,7813,10686,9294,11975,7813,10686,9294,11975,22336,25838,24453,24830,-137,-214,17,-0.537255,-0.839216,0.066667,0,67,600
2026-05-18T07:28:43.074+00:00,1779089323074249000,89,R,7814,10689,9295,11972,7814,10689,9295,11972,22337,25838,24454,24832,-138,-215,17,-0.541176,-0.843137,0.066667,0,67,700
2026-05-18T07:28:43.074+00:00,1779089323074295000,90,R,7813,10687,9293,11970,7813,10687,9293,11970,22334,25832,24452,24830,-140,-215,16,-0.54902,-0.843137,0.062745,0,67,800
2026-05-18T07:28:43.372+00:00,1779089323372670000,91,R,7813,10688,9291,11968,7813,10688,9291,11968,22331,25834,24450,24827,-140,-214,16,-0.54902,-0.839216,0.062745,0,67,900
2026-05-18T07:28:43.372+00:00,1779089323372826000,92,R,7813,10689,9293,11968,7813,10689,9293,11968,22332,25837,24453,24828,-140,-214,17,-0.54902,-0.839216,0.066667,0,67,a00
2026-05-18T07:28:43.372+00:00,1779089323372926000,93,R,7811,10687,9291,11969,7811,10687,9291,11969,22332,25832,24448,24827,-139,-214,17,-0.545098,-0.839216,0.066667,0,67,b00
2026-05-18T07:28:43.372+00:00,1779089323373003000,94,R,7810,10687,9291,11969,7810,10687,9291,11969,22332,25828,24448,24824,-139,-214,17,-0.545098,-0.839216,0.066667,0,67,c00
2026-05-18T07:28:43.373+00:00,1779089323373086000,95,R,7810,10684,9292,11969,7810,10684,9292,11969,22330,25831,24453,24823,-140,-214,17,-0.54902,-0.839216,0.066667,0,67,d00
2026-05-18T07:28:43.667+00:00,1779089323667974000,96,R,7810,10689,9292,11969,7810,10689,9292,11969,22334,25830,24455,24822,-140,-214,17,-0.54902,-0.839216,0.066667,0,67,e00
2026-05-18T07:28:43.668+00:00,1779089323668141000,97,R,7811,10690,9290,11968,7811,10690,9290,11968,22332,25830,24457,24825,-140,-212,17,-0.54902,-0.831373,0.066667,0,67,f00
2026-05-18T07:28:43.668+00:00,1779089323668214000,98,R,7811,10689,9289,11971,7811,10689,9289,11971,22332,25833,24456,24825,-139,-212,17,-0.545098,-0.831373,0.066667,0,67,000
2026-05-18T07:28:43.668+00:00,1779089323668279000,99,R,7811,10691,9290,11971,7811,10691,9290,11971,22330,25829,24457,24827,-140,-213,17,-0.54902,-0.835294,0.066667,0,67,100
2026-05-18T07:28:43.668+00:00,1779089323668340000,100,R,7813,10689,9289,11967,7813,10689,9289,11967,22333,25832,24459,24827,-141,-212,18,-0.552941,-0.831373,0.070588,0,67,200
2026-05-18T07:28:43.673+00:00,1779089323673441000,101,R,7812,10689,9291,11970,7812,10689,9291,11970,22330,25830,24452,24822,-140,-213,17,-0.54902,-0.835294,0.066667,0,67,300
2026-05-18T07:28:43.673+00:00,1779089323673544000,102,R,7813,10691,9291,11972,7813,10691,9291,11972,22335,25829,24456,24828,-141,-213,19,-0.552941,-0.835294,0.07451,0,67,400
2026-05-18T07:28:43.673+00:00,1779089323673618000,103,R,7811,10691,9291,11969,7811,10691,9291,11969,22336,25828,24455,24823,-140,-212,18,-0.54902,-0.831373,0.070588,0,67,500
2026-05-18T07:28:43.673+00:00,1779089323673686000,104,R,7849,10726,9324,12023,7849,10726,9324,12023,22379,25879,24473,24866,-146,-209,25,-0.572549,-0.819608,0.098039,0,67,02340
2026-05-18T07:28:43.673+00:00,1779089323673751000,105,R,7845,10723,9322,12016,7845,10723,9322,12016,22378,25871,24469,24859,-147,-209,24,-0.576471,-0.819608,0.094118,0,67,12340
2026-05-18T07:28:44.118+00:00,1779089324119039000,106,R,7844,10720,9318,12013,7844,10720,9318,12013,22375,25871,24463,24857,-147,-207,25,-0.576471,-0.811765,0.098039,0,67,22340
2026-05-18T07:28:44.119+00:00,1779089324119185000,107,R,7843,10715,9317,12009,7843,10715,9317,12009,22372,25868,24457,24851,-145,-207,25,-0.568627,-0.811765,0.098039,0,67,32340
2026-05-18T07:28:44.119+00:00,1779089324119270000,108,R,7841,10715,9318,12006,7841,10715,9318,12006,22369,25869,24459,24846,-145,-206,24,-0.568627,-0.807843,0.094118,0,67,42340
2026-05-18T07:28:44.119+00:00,1779089324119339000,109,R,7836,10706,9313,12002,7836,10706,9313,12002,22366,25859,24448,24838,-145,-209,25,-0.568627,-0.819608,0.098039,0,67,c2410
2026-05-18T07:28:44.119+00:00,1779089324119402000,110,R,7833,10707,9310,11999,7833,10707,9310,11999,22358,25856,24445,24838,-143,-210,24,-0.560784,-0.823529,0.094118,0,67,d2410
2026-05-18T07:28:44.119+00:00,1779089324119464000,111,R,7833,10706,9308,11998,7833,10706,9308,11998,22359,25852,24444,24835,-144,-209,26,-0.564706,-0.819608,0.101961,0,67,e2410
2026-05-18T07:28:44.272+00:00,1779089324272369000,112,R,7833,10706,9307,11997,7833,10706,9307,11997,22355,25853,24448,24837,-145,-211,26,-0.568627,-0.827451,0.101961,0,67,f2410
2026-05-18T07:28:44.272+00:00,1779089324272519000,113,R,7833,10707,9309,11998,7833,10707,9309,11998,22357,25855,24442,24836,-144,-211,25,-0.564706,-0.827451,0.098039,0,67,02410
2026-05-18T07:28:44.272+00:00,1779089324272612000,114,R,7831,10703,9311,11997,7831,10703,9311,11997,22355,25855,24443,24834,-144,-207,25,-0.564706,-0.811765,0.098039,0,67,82480
2026-05-18T07:28:44.272+00:00,1779089324272683000,115,R,7832,10704,9308,11997,7832,10704,9308,11997,22353,25853,24442,24834,-144,-207,25,-0.564706,-0.811765,0.098039,0,67,92480
2026-05-18T07:28:44.272+00:00,1779089324272750000,116,R,7833,10707,9310,11998,7833,10707,9310,11998,22355,25852,24442,24835,-144,-208,26,-0.564706,-0.815686,0.101961,0,67,a2480
2026-05-18T07:28:44.567+00:00,1779089324568019000,117,R,7833,10706,9310,11997,7833,10706,9310,11997,22357,25854,24446,24833,-144,-207,25,-0.564706,-0.811765,0.098039,0,67,b2480
2026-05-18T07:28:44.568+00:00,1779089324568181000,118,R,7832,10705,9310,11998,7832,10705,9310,11998,22358,25855,24443,24832,-144,-209,25,-0.564706,-0.819608,0.098039,0,67,c2480
2026-05-18T07:28:44.568+00:00,1779089324568268000,119,R,7834,10712,9313,12002,7834,10712,9313,12002,22363,25860,24449,24836,-145,-210,24,-0.568627,-0.823529,0.094118,0,67,32540
2026-05-18T07:28:44.568+00:00,1779089324568337000,120,R,7834,10713,9312,12003,7834,10713,9312,12003,22358,25860,24450,24839,-145,-209,25,-0.568627,-0.819608,0.098039,0,67,42540
2026-05-18T07:28:44.568+00:00,1779089324568402000,121,R,7835,10711,9314,12002,7835,10711,9314,12002,22359,25859,24450,24838,-145,-209,24,-0.568627,-0.819608,0.094118,0,67,52540
2026-05-18T07:28:44.573+00:00,1779089324573267000,122,R,7837,10716,9314,12003,7837,10716,9314,12003,22363,25858,24454,24842,-143,-210,24,-0.560784,-0.823529,0.094118,0,67,62540
2026-05-18T07:28:44.573+00:00,1779089324573477000,123,R,7839,10712,9313,12004,7839,10712,9313,12004,22360,25861,24452,24838,-145,-209,26,-0.568627,-0.819608,0.101961,0,67,72540
2026-05-18T07:28:44.573+00:00,1779089324573546000,124,R,7841,10721,9317,12015,7841,10721,9317,12015,22370,25868,24468,24853,-144,-210,25,-0.564706,-0.823529,0.098039,0,67,02620
2026-05-18T07:28:44.573+00:00,1779089324573611000,125,R,7841,10724,9318,12018,7841,10724,9318,12018,22371,25867,24468,24853,-145,-210,25,-0.568627,-0.823529,0.098039,0,67,12620
2026-05-18T07:28:44.573+00:00,1779089324573675000,126,R,7843,10728,9319,12019,7843,10728,9319,12019,22372,25867,24469,24859,-144,-210,25,-0.564706,-0.823529,0.098039,0,68,22620
2026-05-18T07:28:44.723+00:00,1779089324723205000,127,R,7844,10728,9321,12021,7844,10728,9321,12021,22371,25869,24469,24855,-143,-209,24,-0.560784,-0.819608,0.094118,0,68,32620
2026-05-18T07:28:44.723+00:00,1779089324723327000,128,R,7842,10727,9321,12019,7842,10727,9321,12019,22372,25873,24471,24857,-142,-210,25,-0.556863,-0.823529,0.098039,0,68,42620
2026-05-18T07:28:44.723+00:00,1779089324723400000,129,R,7848,10736,9325,12030,7848,10736,9325,12030,22380,25881,24481,24865,-142,-209,24,-0.556863,-0.819608,0.094118,0,68,c2690
2026-05-18T07:28:44.723+00:00,1779089324723468000,130,R,7848,10740,9325,12032,7848,10740,9325,12032,22379,25880,24486,24871,-144,-210,24,-0.564706,-0.823529,0.094118,0,68,d2690
2026-05-18T07:28:44.723+00:00,1779089324723536000,131,R,7849,10739,9323,12031,7849,10739,9323,12031,22383,25880,24483,24872,-143,-209,24,-0.560784,-0.819608,0.094118,0,68,e2690
2026-05-18T07:28:44.873+00:00,1779089324873374000,132,R,7853,10740,9327,12032,7853,10740,9327,12032,22385,25880,24486,24871,-143,-209,25,-0.560784,-0.819608,0.098039,0,68,f2690
2026-05-18T07:28:44.873+00:00,1779089324873409000,133,R,7853,10741,9327,12034,7853,10741,9327,12034,22385,25885,24488,24876,-145,-209,26,-0.568627,-0.819608,0.101961,0,68,02690
2026-05-18T07:28:44.873+00:00,1779089324873426000,134,R,7852,10742,9328,12035,7852,10742,9328,12035,22386,25884,24488,24875,-145,-210,25,-0.568627,-0.823529,0.098039,0,68,12690
2026-05-18T07:28:44.873+00:00,1779089324873439000,135,R,7843,10715,9321,12008,7843,10715,9321,12008,22372,25867,24458,24852,-144,-210,25,-0.564706,-0.823529,0.098039,0,68,82750
2026-05-18T07:28:44.873+00:00,1779089324873463000,136,R,7839,10711,9318,12005,7839,10711,9318,12005,22373,25867,24455,24849,-144,-209,26,-0.564706,-0.819608,0.101961,0,68,92750
2026-05-18T07:28:45.173+00:00,1779089325173506000,137,R,7839,10713,9318,12007,7839,10713,9318,12007,22371,25866,24459,24845,-145,-210,27,-0.568627,-0.823529,0.105882,0,68,a2750
2026-05-18T07:28:45.173+00:00,1779089325173670000,138,R,7837,10710,9314,12003,7837,10710,9314,12003,22367,25863,24451,24842,-145,-211,25,-0.568627,-0.827451,0.098039,0,68,b2750
2026-05-18T07:28:45.173+00:00,1779089325173748000,139,R,7837,10711,9314,12004,7837,10711,9314,12004,22362,25859,24449,24843,-143,-213,24,-0.560784,-0.835294,0.094118,0,68,c2750
2026-05-18T07:28:45.173+00:00,1779089325173853000,140,R,7837,10707,9312,11998,7837,10707,9312,11998,22358,25858,24443,24837,-145,-204,26,-0.568627,-0.8,0.101961,0,68,32810
2026-05-18T07:28:45.173+00:00,1779089325173903000,141,R,7834,10707,9312,11999,7834,10707,9312,11999,22362,25863,24446,24835,-146,-206,28,-0.572549,-0.807843,0.109804,0,68,42810
2026-05-18T07:28:45.322+00:00,1779089325323021000,142,R,7837,10710,9315,11993,7837,10710,9315,11993,22362,25862,24447,24835,-145,-207,28,-0.568627,-0.811765,0.109804,0,68,52810
2026-05-18T07:28:45.323+00:00,1779089325323127000,143,R,7835,10710,9316,12000,7835,10710,9316,12000,22364,25862,24452,24835,-144,-208,27,-0.564706,-0.815686,0.105882,0,68,62810
2026-05-18T07:28:45.323+00:00,1779089325323199000,144,R,7836,10709,9317,12003,7836,10709,9317,12003,22360,25862,24449,24841,-145,-209,27,-0.568627,-0.819608,0.105882,0,68,72810
2026-05-18T07:28:45.323+00:00,1779089325323265000,145,R,7838,10711,9315,12001,7838,10711,9315,12001,22359,25861,24450,24838,-141,-210,24,-0.552941,-0.823529,0.094118,0,68,e2870
2026-05-18T07:28:45.323+00:00,1779089325323330000,146,R,7836,10709,9315,12000,7836,10709,9315,12000,22360,25862,24448,24834,-140,-212,25,-0.54902,-0.831373,0.098039,0,68,f2870
2026-05-18T07:28:45.323+00:00,1779089325323396000,147,R,7836,10709,9315,11998,7836,10709,9315,11998,22360,25863,24444,24838,-141,-212,25,-0.552941,-0.831373,0.098039,0,68,02870
2026-05-18T07:28:45.474+00:00,1779089325474104000,148,R,7844,10720,9312,12006,7844,10720,9312,12006,22360,25862,24452,24839,-142,-211,25,-0.556863,-0.827451,0.098039,0,68,12870
2026-05-18T07:28:45.474+00:00,1779089325474218000,149,R,7836,10709,9317,12001,7836,10709,9317,12001,22362,25865,24450,24839,-143,-210,25,-0.560784,-0.823529,0.098039,0,68,22870
2026-05-18T07:28:45.474+00:00,1779089325474259000,150,R,7837,10716,9319,12009,7837,10716,9319,12009,22366,25867,24457,24841,-144,-210,25,-0.564706,-0.823529,0.098039,0,68,92930
2026-05-18T07:28:45.474+00:00,1779089325474522000,151,R,7840,10715,9316,12010,7840,10715,9316,12010,22365,25867,24458,24845,-144,-209,27,-0.564706,-0.819608,0.105882,0,68,a2930
2026-05-18T07:28:45.474+00:00,1779089325474566000,152,R,7838,10718,9316,12010,7838,10718,9316,12010,22367,25870,24458,24839,-143,-209,26,-0.560784,-0.819608,0.101961,0,68,b2930
2026-05-18T07:28:45.624+00:00,1779089325624992000,153,R,7841,10716,9318,12011,7841,10716,9318,12011,22367,25871,24459,24846,-143,-209,25,-0.560784,-0.819608,0.098039,0,68,c2930
2026-05-18T07:28:45.625+00:00,1779089325625125000,154,R,7841,10706,9323,12016,7841,10706,9323,12016,22368,25873,24462,24847,-143,-210,26,-0.560784,-0.823529,0.101961,0,68,d2930
2026-05-18T07:28:45.625+00:00,1779089325625180000,155,R,7849,10728,9327,12023,7849,10728,9327,12023,22373,25879,24474,24858,-143,-210,26,-0.560784,-0.823529,0.101961,0,68,83030
2026-05-18T07:28:45.625+00:00,1779089325625227000,156,R,7837,10742,9310,12023,7837,10742,9310,12023,22377,25881,24475,24863,-143,-209,26,-0.560784,-0.819608,0.101961,0,68,93030
2026-05-18T07:28:45.625+00:00,1779089325625274000,157,R,7847,10734,9325,12026,7847,10734,9325,12026,22377,25879,24473,24864,-143,-210,26,-0.560784,-0.823529,0.101961,0,68,a3030
2026-05-18T07:28:45.774+00:00,1779089325774182000,158,R,7851,10734,9328,12028,7851,10734,9328,12028,22378,25882,24476,24864,-143,-210,26,-0.560784,-0.823529,0.101961,0,68,b3030
2026-05-18T07:28:45.774+00:00,1779089325774216000,159,R,7847,10735,9329,12029,7847,10735,9329,12029,22382,25882,24481,24866,-143,-210,26,-0.560784,-0.823529,0.101961,0,68,c3030
2026-05-18T07:28:45.774+00:00,1779089325774234000,160,R,7852,10743,9335,12038,7852,10743,9335,12038,22392,25890,24490,24878,-143,-211,26,-0.560784,-0.827451,0.101961,0,68,43100
2026-05-18T07:28:45.774+00:00,1779089325774250000,161,R,7860,10741,9335,12035,7860,10741,9335,12035,22389,25889,24492,24877,-144,-211,26,-0.564706,-0.827451,0.101961,0,68,53100
2026-05-18T07:28:45.774+00:00,1779089325774264000,162,R,7856,10742,9334,12041,7856,10742,9334,12041,22393,25889,24494,24880,-143,-210,25,-0.560784,-0.823529,0.098039,0,68,63100
2026-05-18T07:28:45.923+00:00,1779089325923474000,163,R,7857,10744,9332,12039,7857,10744,9332,12039,22390,25887,24490,24878,-142,-210,24,-0.556863,-0.823529,0.094118,0,68,73100
2026-05-18T07:28:45.923+00:00,1779089325923517000,164,R,7856,10739,9332,12034,7856,10739,9332,12034,22391,25885,24486,24875,-143,-210,26,-0.560784,-0.823529,0.101961,0,68,83100
2026-05-18T07:28:45.923+00:00,1779089325923533000,165,R,7853,10732,9329,12028,7853,10732,9329,12028,22389,25885,24480,24870,-143,-211,25,-0.560784,-0.827451,0.098039,0,68,93100
2026-05-18T07:28:45.923+00:00,1779089325923547000,166,R,7845,10717,9322,12012,7845,10717,9322,12012,22370,25871,24457,24849,-142,-209,25,-0.556863,-0.819608,0.098039,0,68,03160
2026-05-18T07:28:45.923+00:00,1779089325923559000,167,R,7837,10716,9320,12005,7837,10716,9320,12005,22369,25870,24454,24844,-142,-211,24,-0.556863,-0.827451,0.094118,0,68,13160
2026-05-18T07:28:46.073+00:00,1779089326073529000,168,R,7842,10713,9322,12012,7842,10713,9322,12012,22370,25874,24453,24850,-141,-212,24,-0.552941,-0.831373,0.094118,0,68,23160
2026-05-18T07:28:46.073+00:00,1779089326073571000,169,R,7842,10716,9319,12010,7842,10716,9319,12010,22371,25872,24455,24846,-142,-212,24,-0.556863,-0.831373,0.094118,0,68,33160
2026-05-18T07:28:46.073+00:00,1779089326073599000,170,R,7843,10713,9319,12008,7843,10713,9319,12008,22370,25872,24456,24846,-142,-213,24,-0.556863,-0.835294,0.094118,0,68,43160
2026-05-18T07:28:46.073+00:00,1779089326073625000,171,R,7840,10718,9320,12011,7840,10718,9320,12011,22368,25866,24458,24844,-143,-209,26,-0.560784,-0.819608,0.101961,0,68,c3230
2026-05-18T07:28:46.073+00:00,1779089326073651000,172,R,7837,10720,9311,12008,7837,10720,9311,12008,22370,25871,24458,24845,-144,-211,26,-0.564706,-0.827451,0.101961,0,68,d3230
2026-05-18T07:28:46.519+00:00,1779089326519331000,173,R,7841,10717,9322,12007,7841,10717,9322,12007,22365,25867,24459,24846,-143,-211,26,-0.560784,-0.827451,0.101961,0,68,e3230
2026-05-18T07:28:46.519+00:00,1779089326519490000,174,R,7841,10716,9318,12008,7841,10716,9318,12008,22368,25865,24453,24842,-143,-210,26,-0.560784,-0.823529,0.101961,0,68,f3230
2026-05-18T07:28:46.519+00:00,1779089326519634000,175,R,7840,10717,9321,12007,7840,10717,9321,12007,22368,25871,24455,24842,-142,-209,26,-0.556863,-0.819608,0.101961,0,68,03230
2026-05-18T07:28:46.519+00:00,1779089326519725000,176,R,7842,10718,9322,12007,7842,10718,9322,12007,22368,25871,24459,24845,-142,-210,25,-0.556863,-0.823529,0.098039,0,68,83300
2026-05-18T07:28:46.519+00:00,1779089326519783000,177,R,7853,10719,9336,12011,7853,10719,9336,12011,22370,25872,24458,24849,-143,-210,25,-0.560784,-0.823529,0.098039,0,68,93300
2026-05-18T07:28:46.519+00:00,1779089326519834000,178,R,7840,10717,9322,12013,7840,10717,9322,12013,22369,25868,24458,24843,-142,-211,25,-0.556863,-0.827451,0.098039,0,68,a3300
2026-05-18T07:28:46.524+00:00,1779089326524468000,179,R,7843,10723,9322,12014,7843,10723,9322,12014,22372,25870,24462,24845,-143,-211,25,-0.560784,-0.827451,0.098039,0,68,b3300
2026-05-18T07:28:46.524+00:00,1779089326524530000,180,R,7844,10721,9322,12013,7844,10721,9322,12013,22371,25872,24463,24843,-142,-210,25,-0.556863,-0.823529,0.098039,0,68,c3300
2026-05-18T07:28:46.524+00:00,1779089326524593000,181,R,7850,10727,9326,12021,7850,10727,9326,12021,22376,25874,24469,24856,-141,-211,25,-0.552941,-0.827451,0.098039,0,68,33360
2026-05-18T07:28:46.524+00:00,1779089326524645000,182,R,7847,10728,9328,12022,7847,10728,9328,12022,22376,25876,24473,24854,-142,-211,25,-0.556863,-0.827451,0.098039,0,68,43360
2026-05-18T07:28:46.524+00:00,1779089326524692000,183,R,7848,10729,9326,12025,7848,10729,9326,12025,22379,25876,24476,24860,-142,-212,25,-0.556863,-0.831373,0.098039,0,68,53360
2026-05-18T07:28:46.674+00:00,1779089326674368000,184,R,7851,10731,9327,12023,7851,10731,9327,12023,22376,25877,24473,24855,-142,-210,25,-0.556863,-0.823529,0.098039,0,68,63360
2026-05-18T07:28:46.674+00:00,1779089326674420000,185,R,7850,10733,9329,12023,7850,10733,9329,12023,22381,25881,24474,24858,-142,-210,25,-0.556863,-0.823529,0.098039,0,68,73360
2026-05-18T07:28:46.674+00:00,1779089326674446000,186,R,7856,10742,9336,12038,7856,10742,9336,12038,22387,25888,24488,24870,-142,-210,26,-0.556863,-0.823529,0.101961,0,68,03440
2026-05-18T07:28:46.674+00:00,1779089326674469000,187,R,7856,10746,9336,12037,7856,10746,9336,12037,22386,25883,24494,24873,-141,-211,26,-0.552941,-0.827451,0.101961,0,68,13440
2026-05-18T07:28:46.674+00:00,1779089326674491000,188,R,7857,10744,9337,12039,7857,10744,9337,12039,22390,25892,24489,24872,-142,-211,26,-0.556863,-0.827451,0.101961,0,68,23440
2026-05-18T07:28:46.823+00:00,1779089326823691000,189,R,7859,10747,9337,12039,7859,10747,9337,12039,22389,25890,24489,24873,-142,-211,26,-0.556863,-0.827451,0.101961,0,68,33440
2026-05-18T07:28:46.823+00:00,1779089326823851000,190,R,7859,10748,9338,12040,7859,10748,9338,12040,22391,25888,24491,24874,-141,-210,26,-0.552941,-0.823529,0.101961,0,68,43440
2026-05-18T07:28:46.823+00:00,1779089326823940000,191,R,7862,10748,9339,12046,7862,10748,9339,12046,22396,25892,24497,24881,-143,-210,25,-0.560784,-0.823529,0.098039,0,68,b3500
2026-05-18T07:28:46.824+00:00,1779089326824025000,192,R,7861,10743,9340,12040,7861,10743,9340,12040,22396,25895,24486,24874,-143,-211,25,-0.560784,-0.827451,0.098039,0,68,c3500
2026-05-18T07:28:46.824+00:00,1779089326824113000,193,R,7859,10737,9336,12034,7859,10737,9336,12034,22389,25893,24484,24872,-143,-211,25,-0.560784,-0.827451,0.098039,0,68,d3500
2026-05-18T07:28:46.974+00:00,1779089326974686000,194,R,7857,10734,9336,12027,7857,10734,9336,12027,22389,25886,24476,24867,-143,-211,25,-0.560784,-0.827451,0.098039,0,68,e3500
2026-05-18T07:28:46.974+00:00,1779089326974825000,195,R,7853,10730,9332,12025,7853,10730,9332,12025,22387,25887,24472,24859,-142,-210,26,-0.556863,-0.823529,0.101961,0,68,f3500
2026-05-18T07:28:46.974+00:00,1779089326974899000,196,R,7848,10720,9328,12012,7848,10720,9328,12012,22376,25881,24462,24845,-142,-211,25,-0.556863,-0.827451,0.098039,0,68,73570
2026-05-18T07:28:46.974+00:00,1779089326974967000,197,R,7848,10723,9328,12014,7848,10723,9328,12014,22372,25881,24459,24845,-142,-211,25,-0.556863,-0.827451,0.098039,0,68,83570
2026-05-18T07:28:46.975+00:00,1779089326975256000,198,R,7847,10720,9327,12011,7847,10720,9327,12011,22371,25872,24454,24835,-143,-212,25,-0.560784,-0.831373,0.098039,0,68,93570
2026-05-18T07:28:47.124+00:00,1779089327124267000,199,R,7849,10718,9330,12012,7849,10718,9330,12012,22373,25878,24458,24841,-142,-213,25,-0.556863,-0.835294,0.098039,0,68,a3570
2026-05-18T07:28:47.124+00:00,1779089327124451000,200,R,7845,10720,9327,12012,7845,10720,9327,12012,22374,25875,24456,24840,-142,-211,26,-0.556863,-0.827451,0.101961,0,68,b3570
2026-05-18T07:28:47.124+00:00,1779089327124536000,201,R,7847,10720,9328,12010,7847,10720,9328,12010,22375,25878,24456,24841,-143,-211,25,-0.560784,-0.827451,0.098039,0,68,c3570
2026-05-18T07:28:47.124+00:00,1779089327124607000,202,R,7848,10721,9327,12010,7848,10721,9327,12010,22376,25879,24461,24839,-142,-211,27,-0.556863,-0.827451,0.105882,0,68,33630
2026-05-18T07:28:47.124+00:00,1779089327124672000,203,R,7847,10723,9326,12012,7847,10723,9326,12012,22374,25879,24459,24839,-142,-210,27,-0.556863,-0.823529,0.105882,0,68,43630
2026-05-18T07:28:47.273+00:00,1779089327273498000,204,R,7850,10725,9326,12011,7850,10725,9326,12011,22377,25880,24454,24836,-140,-211,26,-0.54902,-0.827451,0.101961,0,68,53630
2026-05-18T07:28:47.273+00:00,1779089327273631000,205,R,7847,10722,9328,12011,7847,10722,9328,12011,22373,25876,24455,24838,-141,-211,26,-0.552941,-0.827451,0.101961,0,68,63630
2026-05-18T07:28:47.273+00:00,1779089327273705000,206,R,7849,10721,9329,12012,7849,10721,9329,12012,22374,25878,24457,24840,-141,-210,25,-0.552941,-0.823529,0.098039,0,68,73630
2026-05-18T07:28:47.273+00:00,1779089327273776000,207,R,7852,10730,9330,12015,7852,10730,9330,12015,22376,25878,24463,24839,-142,-210,25,-0.556863,-0.823529,0.098039,0,68,f3700
2026-05-18T07:28:47.273+00:00,1779089327273841000,208,R,7850,10725,9329,12016,7850,10725,9329,12016,22377,25879,24464,24840,-142,-211,25,-0.556863,-0.827451,0.098039,0,68,03700
2026-05-18T07:28:47.423+00:00,1779089327423383000,209,R,7849,10728,9329,12015,7849,10728,9329,12015,22377,25883,24468,24846,-142,-211,25,-0.556863,-0.827451,0.098039,0,68,13700
2026-05-18T07:28:47.423+00:00,1779089327423508000,210,R,7851,10730,9333,12019,7851,10730,9333,12019,22377,25878,24466,24842,-142,-210,25,-0.556863,-0.823529,0.098039,0,68,23700
2026-05-18T07:28:47.423+00:00,1779089327423592000,211,R,7853,10731,9333,12019,7853,10731,9333,12019,22381,25883,24466,24844,-142,-210,25,-0.556863,-0.823529,0.098039,0,68,33700
2026-05-18T07:28:47.423+00:00,1779089327423670000,212,R,7855,10741,9336,12030,7855,10741,9336,12030,22385,25890,24479,24850,-143,-211,25,-0.560784,-0.827451,0.098039,0,68,b3770
2026-05-18T07:28:47.423+00:00,1779089327423734000,213,R,7857,10738,9336,12027,7857,10738,9336,12027,22386,25888,24479,24853,-142,-211,25,-0.556863,-0.827451,0.098039,0,68,c3770
2026-05-18T07:28:47.423+00:00,1779089327423797000,214,R,7859,10741,9338,12031,7859,10741,9338,12031,22385,25883,24479,24854,-142,-211,26,-0.556863,-0.827451,0.101961,0,68,d3770
2026-05-18T07:28:47.574+00:00,1779089327574754000,215,R,7858,10741,9337,12034,7858,10741,9337,12034,22385,25890,24480,24855,-141,-211,26,-0.552941,-0.827451,0.101961,0,68,e3770
2026-05-18T07:28:47.574+00:00,1779089327574883000,216,R,7860,10744,9340,12029,7860,10744,9340,12029,22388,25893,24482,24855,-142,-212,25,-0.556863,-0.831373,0.098039,0,68,f3770
2026-05-18T07:28:47.574+00:00,1779089327574958000,217,R,7864,10752,9344,12041,7864,10752,9344,12041,22397,25901,24491,24864,-141,-212,25,-0.552941,-0.831373,0.098039,0,68,63830
2026-05-18T07:28:47.575+00:00,1779089327575025000,218,R,7864,10751,9343,12042,7864,10751,9343,12042,22397,25900,24497,24866,-142,-212,24,-0.556863,-0.831373,0.094118,0,68,73830
2026-05-18T07:28:47.575+00:00,1779089327575091000,219,R,7865,10752,9346,12045,7865,10752,9346,12045,22394,25900,24492,24867,-141,-212,24,-0.552941,-0.831373,0.094118,0,68,83830
2026-05-18T07:28:47.872+00:00,1779089327872602000,220,R,7865,10752,9345,12046,7865,10752,9345,12046,22396,25899,24497,24869,-142,-211,25,-0.556863,-0.827451,0.098039,0,68,93830
2026-05-18T07:28:47.872+00:00,1779089327872754000,221,R,7868,10756,9346,12045,7868,10756,9346,12045,22399,25902,24496,24872,-143,-211,25,-0.560784,-0.827451,0.098039,0,68,a3830
2026-05-18T07:28:47.872+00:00,1779089327872830000,222,R,7870,10756,9349,12050,7870,10756,9349,12050,22403,25903,24503,24880,-142,-211,25,-0.556863,-0.827451,0.098039,0,68,13890
2026-05-18T07:28:47.872+00:00,1779089327872896000,223,R,7869,10753,9347,12048,7869,10753,9347,12048,22401,25907,24499,24878,-142,-212,25,-0.556863,-0.831373,0.098039,0,68,23890
2026-05-18T07:28:47.872+00:00,1779089327872960000,224,R,7866,10749,9347,12042,7866,10749,9347,12042,22401,25903,24491,24869,-143,-212,25,-0.560784,-0.831373,0.098039,0,68,33890
2026-05-18T07:28:48.020+00:00,1779089328020040000,225,R,7866,10745,9343,12037,7866,10745,9343,12037,22401,25897,24486,24867,-142,-211,25,-0.556863,-0.827451,0.098039,0,68,43890
2026-05-18T07:28:48.020+00:00,1779089328020191000,226,R,7863,10739,9342,12031,7863,10739,9342,12031,22396,25897,24476,24861,-142,-211,24,-0.556863,-0.827451,0.094118,0,68,53890
2026-05-18T07:28:48.020+00:00,1779089328020221000,227,R,7854,10732,9336,12018,7854,10732,9336,12018,22385,25886,24466,24845,-141,-211,25,-0.552941,-0.827451,0.098039,0,68,d3960
2026-05-18T07:28:48.020+00:00,1779089328020246000,228,R,7852,10727,9333,12016,7852,10727,9333,12016,22383,25888,24467,24841,-141,-211,25,-0.552941,-0.827451,0.098039,0,68,e3960
2026-05-18T07:28:48.020+00:00,1779089328020271000,229,R,7852,10728,9333,12016,7852,10728,9333,12016,22381,25882,24465,24841,-142,-211,25,-0.556863,-0.827451,0.098039,0,68,f3960
2026-05-18T07:28:48.172+00:00,1779089328172744000,230,R,7853,10728,9332,12015,7853,10728,9332,12015,22383,25889,24465,24840,-143,-212,25,-0.560784,-0.831373,0.098039,0,68,03960
2026-05-18T07:28:48.172+00:00,1779089328172924000,231,R,7855,10727,9334,12014,7855,10727,9334,12014,22380,25878,24460,24839,-142,-213,26,-0.556863,-0.835294,0.101961,0,68,13960
2026-05-18T07:28:48.172+00:00,1779089328172997000,232,R,7855,10728,9335,12014,7855,10728,9335,12014,22382,25881,24463,24839,-142,-212,26,-0.556863,-0.831373,0.101961,0,68,23960
2026-05-18T07:28:48.173+00:00,1779089328173065000,233,R,7852,10729,9333,12016,7852,10729,9333,12016,22378,25883,24458,24836,-140,-210,25,-0.54902,-0.823529,0.098039,0,68,b4040
2026-05-18T07:28:48.173+00:00,1779089328173131000,234,R,7854,10725,9333,12005,7854,10725,9333,12005,22376,25882,24460,24837,-141,-210,25,-0.552941,-0.823529,0.098039,0,68,c4040
2026-05-18T07:28:48.320+00:00,1779089328320752000,235,R,7852,10730,9335,12013,7852,10730,9335,12013,22379,25882,24459,24835,-141,-211,26,-0.552941,-0.827451,0.101961,0,68,d4040
2026-05-18T07:28:48.320+00:00,1779089328320813000,236,R,7853,10730,9333,12016,7853,10730,9333,12016,22375,25883,24457,24832,-142,-210,26,-0.556863,-0.823529,0.101961,0,68,e4040
2026-05-18T07:28:48.320+00:00,1779089328320840000,237,R,7854,10731,9332,12013,7854,10731,9332,12013,22374,25880,24461,24835,-142,-210,25,-0.556863,-0.823529,0.098039,0,68,f4040
2026-05-18T07:28:48.320+00:00,1779089328320865000,238,R,7855,10733,9335,12020,7855,10733,9335,12020,22380,25881,24468,24836,-142,-211,24,-0.556863,-0.827451,0.094118,0,68,74110
2026-05-18T07:28:48.320+00:00,1779089328320895000,239,R,7858,10735,9346,12027,7858,10735,9346,12027,22376,25882,24468,24839,-142,-210,25,-0.556863,-0.823529,0.098039,0,68,84110
2026-05-18T07:28:48.471+00:00,1779089328471160000,240,R,7857,10736,9336,12021,7857,10736,9336,12021,22377,25883,24467,24834,-142,-212,24,-0.556863,-0.831373,0.094118,0,68,94110
2026-05-18T07:28:48.471+00:00,1779089328471302000,241,R,7859,10735,9339,12021,7859,10735,9339,12021,22377,25885,24469,24842,-141,-211,25,-0.552941,-0.827451,0.098039,0,68,a4110
2026-05-18T07:28:48.471+00:00,1779089328471377000,242,R,7857,10737,9336,12023,7857,10737,9336,12023,22380,25885,24472,24839,-141,-212,25,-0.552941,-0.831373,0.098039,0,68,b4110
2026-05-18T07:28:48.471+00:00,1779089328471460000,243,R,7862,10745,9342,12030,7862,10745,9342,12030,22389,25894,24478,24850,-142,-211,24,-0.556863,-0.827451,0.094118,0,68,34180
2026-05-18T07:28:48.471+00:00,1779089328471526000,244,R,7856,10744,9345,12030,7856,10744,9345,12030,22387,25896,24480,24848,-141,-212,25,-0.552941,-0.831373,0.098039,0,68,44180
2026-05-18T07:28:48.471+00:00,1779089328471589000,245,R,7862,10746,9342,12031,7862,10746,9342,12031,22392,25891,24481,24851,-142,-211,25,-0.556863,-0.827451,0.098039,0,68,54180
2026-05-18T07:28:48.621+00:00,1779089328621532000,246,R,7864,10749,9343,12035,7864,10749,9343,12035,22390,25896,24481,24853,-141,-212,25,-0.552941,-0.831373,0.098039,0,68,64180
2026-05-18T07:28:48.621+00:00,1779089328621697000,247,R,7864,10749,9343,12036,7864,10749,9343,12036,22390,25901,24482,24853,-141,-212,25,-0.552941,-0.831373,0.098039,0,68,74180
2026-05-18T07:28:48.621+00:00,1779089328621787000,248,R,7868,10757,9348,12042,7868,10757,9348,12042,22395,25902,24489,24862,-141,-211,25,-0.552941,-0.827451,0.098039,0,68,e4240
2026-05-18T07:28:48.621+00:00,1779089328621854000,249,R,7869,10756,9349,12043,7869,10756,9349,12043,22399,25905,24494,24864,-141,-212,25,-0.552941,-0.831373,0.098039,0,68,f4240
2026-05-18T07:28:48.621+00:00,1779089328621918000,250,R,7879,10766,9349,12050,7879,10766,9349,12050,22400,25902,24495,24866,-141,-212,25,-0.552941,-0.831373,0.098039,0,68,04240
2026-05-18T07:28:48.771+00:00,1779089328771959000,251,R,7869,10760,9352,12046,7869,10760,9352,12046,22400,25909,24498,24866,-140,-211,25,-0.54902,-0.827451,0.098039,0,68,14240
2026-05-18T07:28:48.771+00:00,1779089328771998000,252,R,7871,10762,9351,12047,7871,10762,9351,12047,22402,25905,24499,24868,-140,-210,24,-0.54902,-0.823529,0.094118,0,68,24240
2026-05-18T07:28:48.772+00:00,1779089328772015000,253,R,7872,10750,9348,12039,7872,10750,9348,12039,22402,25906,24486,24863,-142,-211,25,-0.556863,-0.827451,0.098039,0,68,b4320
2026-05-18T07:28:48.772+00:00,1779089328772029000,254,R,7868,10740,9351,12034,7868,10740,9351,12034,22399,25905,24482,24857,-142,-212,24,-0.556863,-0.831373,0.094118,0,68,c4320
2026-05-18T07:28:48.772+00:00,1779089328772043000,255,R,7865,10741,9346,12027,7865,10741,9346,12027,22395,25898,24472,24853,-141,-211,24,-0.552941,-0.827451,0.094118,0,68,d4320
2026-05-18T07:28:48.922+00:00,1779089328922552000,256,R,7865,10742,9345,12024,7865,10742,9345,12024,22392,25898,24468,24847,-141,-210,24,-0.552941,-0.823529,0.094118,0,68,e4320
2026-05-18T07:28:48.922+00:00,1779089328922681000,257,R,7865,10737,9344,12023,7865,10737,9344,12023,22388,25898,24466,24845,-142,-209,24,-0.556863,-0.819608,0.094118,0,68,f4320
2026-05-18T07:28:48.922+00:00,1779089328922755000,258,R,7858,10731,9341,12016,7858,10731,9341,12016,22380,25885,24460,24836,-145,-211,25,-0.568627,-0.827451,0.098039,0,68,74390
2026-05-18T07:28:48.922+00:00,1779089328922822000,259,R,7858,10742,9330,12014,7858,10742,9330,12014,22376,25880,24459,24827,-144,-211,25,-0.564706,-0.827451,0.098039,0,68,84390
2026-05-18T07:28:48.922+00:00,1779089328922898000,260,R,7857,10732,9339,12016,7857,10732,9339,12016,22379,25885,24457,24834,-142,-211,26,-0.556863,-0.827451,0.101961,0,68,94390
2026-05-18T07:28:49.072+00:00,1779089329072392000,261,R,7857,10733,9339,12016,7857,10733,9339,12016,22379,25885,24457,24831,-144,-210,25,-0.564706,-0.823529,0.098039,0,68,a4390
2026-05-18T07:28:49.072+00:00,1779089329072512000,262,R,7857,10735,9340,12014,7857,10735,9340,12014,22381,25885,24458,24834,-142,-210,26,-0.556863,-0.823529,0.101961,0,68,b4390
2026-05-18T07:28:49.072+00:00,1779089329072594000,263,R,7856,10730,9336,12016,7856,10730,9336,12016,22375,25881,24453,24828,-141,-210,24,-0.552941,-0.823529,0.094118,0,68,34460
2026-05-18T07:28:49.072+00:00,1779089329072663000,264,R,7862,10731,9342,12021,7862,10731,9342,12021,22379,25888,24455,24833,-142,-210,25,-0.556863,-0.823529,0.098039,0,68,44460
2026-05-18T07:28:49.072+00:00,1779089329072728000,265,R,7857,10731,9342,12017,7857,10731,9342,12017,22378,25882,24456,24832,-143,-211,24,-0.560784,-0.827451,0.094118,0,68,54460
2026-05-18T07:28:49.220+00:00,1779089329220402000,266,R,7855,10733,9335,12016,7855,10733,9335,12016,22377,25880,24458,24829,-143,-211,25,-0.560784,-0.827451,0.098039,0,68,64460
2026-05-18T07:28:49.220+00:00,1779089329220549000,267,R,7857,10734,9338,12017,7857,10734,9338,12017,22379,25882,24459,24831,-142,-211,24,-0.556863,-0.827451,0.094118,0,68,74460
2026-05-18T07:28:49.220+00:00,1779089329220625000,268,R,7857,10733,9338,12015,7857,10733,9338,12015,22377,25880,24457,24829,-142,-210,25,-0.556863,-0.823529,0.098039,0,68,84460
2026-05-18T07:28:49.220+00:00,1779089329220694000,269,R,7859,10739,9339,12020,7859,10739,9339,12020,22373,25880,24464,24837,-142,-211,25,-0.556863,-0.827451,0.098039,0,68,f4520
2026-05-18T07:28:49.220+00:00,1779089329220793000,270,R,7854,10740,9342,12024,7854,10740,9342,12024,22374,25882,24460,24827,-143,-211,24,-0.560784,-0.827451,0.094118,0,68,04520
2026-05-18T07:28:49.371+00:00,1779089329371820000,271,R,7856,10739,9339,12021,7856,10739,9339,12021,22381,25885,24465,24837,-142,-210,25,-0.556863,-0.823529,0.098039,0,68,14520
2026-05-18T07:28:49.371+00:00,1779089329371947000,272,R,7859,10741,9340,12024,7859,10741,9340,12024,22377,25884,24467,24837,-142,-210,24,-0.556863,-0.823529,0.094118,0,68,24520
2026-05-18T07:28:49.373+00:00,1779089329373114000,273,R,7860,10742,9341,12022,7860,10742,9341,12022,22376,25880,24466,24834,-143,-210,24,-0.560784,-0.823529,0.094118,0,68,34520
2026-05-18T07:28:49.373+00:00,1779089329373214000,274,R,7865,10747,9341,12032,7865,10747,9341,12032,22386,25889,24475,24848,-141,-211,24,-0.552941,-0.827451,0.094118,0,68,b4590
2026-05-18T07:28:49.373+00:00,1779089329373285000,275,R,7855,10750,9337,12035,7855,10750,9337,12035,22380,25884,24469,24844,-142,-211,24,-0.556863,-0.827451,0.094118,0,68,c4590
2026-05-18T07:28:49.522+00:00,1779089329522825000,276,R,7865,10751,9346,12037,7865,10751,9346,12037,22383,25889,24474,24849,-142,-211,25,-0.556863,-0.827451,0.098039,0,68,d4590
2026-05-18T07:28:49.522+00:00,1779089329522983000,277,R,7866,10752,9345,12033,7866,10752,9345,12033,22382,25884,24476,24850,-142,-211,25,-0.556863,-0.827451,0.098039,0,68,e4590
2026-05-18T07:28:49.523+00:00,1779089329523057000,278,R,7865,10753,9346,12036,7865,10753,9346,12036,22382,25885,24480,24852,-142,-211,24,-0.556863,-0.827451,0.094118,0,68,f4590
2026-05-18T07:28:49.523+00:00,1779089329523124000,279,R,7868,10758,9345,12044,7868,10758,9345,12044,22388,25895,24490,24861,-142,-209,24,-0.556863,-0.819608,0.094118,0,69,64650
2026-05-18T07:28:49.523+00:00,1779089329523202000,280,R,7867,10761,9349,12044,7867,10761,9349,12044,22390,25893,24486,24858,-143,-210,25,-0.560784,-0.823529,0.098039,0,69,74650
2026-05-18T07:28:49.523+00:00,1779089329523269000,281,R,7870,10759,9349,12046,7870,10759,9349,12046,22392,25891,24490,24868,-143,-210,25,-0.560784,-0.823529,0.098039,0,69,84650
2026-05-18T07:28:49.673+00:00,1779089329673818000,282,R,7868,10759,9349,12049,7868,10759,9349,12049,22392,25896,24493,24863,-142,-209,24,-0.556863,-0.819608,0.094118,0,69,94650
2026-05-18T07:28:49.673+00:00,1779089329673950000,283,R,7871,10766,9350,12050,7871,10766,9350,12050,22389,25896,24493,24861,-142,-211,25,-0.556863,-0.827451,0.098039,0,69,a4650
2026-05-18T07:28:49.674+00:00,1779089329674022000,284,R,7861,10738,9339,12022,7861,10738,9339,12022,22377,25880,24463,24842,-141,-211,23,-0.552941,-0.827451,0.090196,0,69,14710
2026-05-18T07:28:49.674+00:00,1779089329674087000,285,R,7859,10736,9338,12019,7859,10736,9338,12019,22375,25877,24458,24837,-142,-210,23,-0.556863,-0.823529,0.090196,0,69,24710
2026-05-18T07:28:49.674+00:00,1779089329674164000,286,R,7857,10735,9339,12018,7857,10735,9339,12018,22373,25873,24457,24833,-141,-210,24,-0.552941,-0.823529,0.094118,0,69,34710
2026-05-18T07:28:49.973+00:00,1779089329973392000,287,R,7856,10733,9336,12014,7856,10733,9336,12014,22368,25871,24453,24829,-142,-210,23,-0.556863,-0.823529,0.090196,0,69,44710
2026-05-18T07:28:49.973+00:00,1779089329973427000,288,R,7855,10732,9334,12015,7855,10732,9334,12015,22371,25870,24457,24831,-142,-210,23,-0.556863,-0.823529,0.090196,0,69,54710
2026-05-18T07:28:49.973+00:00,1779089329973443000,289,R,7851,10729,9331,12006,7851,10729,9331,12006,22360,25864,24449,24824,-142,-211,23,-0.556863,-0.827451,0.090196,0,69,e4790
2026-05-18T07:28:49.973+00:00,1779089329973456000,290,R,7851,10728,9332,12011,7851,10728,9332,12011,22361,25861,24449,24821,-142,-210,23,-0.556863,-0.823529,0.090196,0,69,f4790
2026-05-18T07:28:49.973+00:00,1779089329973469000,291,R,7852,10731,9331,12009,7852,10731,9331,12009,22355,25861,24456,24827,-142,-210,24,-0.556863,-0.823529,0.094118,0,69,04790
2026-05-18T07:28:50.122+00:00,1779089330122966000,292,R,7850,10729,9330,12009,7850,10729,9330,12009,22361,25861,24454,24820,-143,-210,23,-0.560784,-0.823529,0.090196,0,69,14790
2026-05-18T07:28:50.122+00:00,1779089330123003000,293,R,7852,10730,9329,12008,7852,10730,9329,12008,22359,25862,24450,24821,-143,-211,23,-0.560784,-0.827451,0.090196,0,69,24790
2026-05-18T07:28:50.123+00:00,1779089330123020000,294,R,7848,10729,9329,12006,7848,10729,9329,12006,22360,25863,24448,24818,-142,-209,24,-0.556863,-0.819608,0.094118,0,69,94850
2026-05-18T07:28:50.123+00:00,1779089330123034000,295,R,7850,10728,9328,12005,7850,10728,9328,12005,22357,25860,24450,24817,-143,-210,23,-0.560784,-0.823529,0.090196,0,69,a4850
2026-05-18T07:28:50.123+00:00,1779089330123047000,296,R,7849,10727,9330,12005,7849,10727,9330,12005,22357,25861,24447,24817,-142,-211,24,-0.556863,-0.827451,0.094118,0,69,b4850
2026-05-18T07:28:50.273+00:00,1779089330273564000,297,R,7848,10730,9329,12007,7848,10730,9329,12007,22355,25861,24450,24818,-142,-212,24,-0.556863,-0.831373,0.094118,0,69,c4850
2026-05-18T07:28:50.273+00:00,1779089330273697000,298,R,7851,10729,9329,12007,7851,10729,9329,12007,22357,25861,24449,24820,-142,-211,24,-0.556863,-0.827451,0.094118,0,69,d4850
2026-05-18T07:28:50.273+00:00,1779089330273792000,299,R,7850,10728,9331,12008,7850,10728,9331,12008,22358,25857,24450,24813,-142,-211,23,-0.556863,-0.827451,0.090196,0,69,e4850
2026-05-18T07:28:50.273+00:00,1779089330273860000,300,R,7853,10734,9330,12013,7853,10734,9330,12013,22358,25859,24454,24817,-142,-211,23,-0.556863,-0.827451,0.090196,0,69,54910
2026-05-18T07:28:50.274+00:00,1779089330274166000,301,R,7850,10737,9331,12013,7850,10737,9331,12013,22360,25863,24457,24826,-142,-211,22,-0.556863,-0.827451,0.086275,0,69,64910
2026-05-18T07:28:50.425+00:00,1779089330425187000,302,R,7852,10734,9329,12014,7852,10734,9329,12014,22360,25864,24458,24826,-142,-211,23,-0.556863,-0.827451,0.090196,0,69,74910
2026-05-18T07:28:50.425+00:00,1779089330425344000,303,R,7855,10738,9332,12016,7855,10738,9332,12016,22356,25860,24451,24818,-142,-211,23,-0.556863,-0.827451,0.090196,0,69,84910
2026-05-18T07:28:50.425+00:00,1779089330425420000,304,R,7853,10739,9332,12016,7853,10739,9332,12016,22362,25861,24462,24825,-142,-209,23,-0.556863,-0.819608,0.090196,0,69,94910
2026-05-18T07:28:50.425+00:00,1779089330425489000,305,R,7855,10742,9333,12023,7855,10742,9333,12023,22366,25870,24465,24834,-141,-211,23,-0.552941,-0.827451,0.090196,0,69,04970
2026-05-18T07:28:50.425+00:00,1779089330425552000,306,R,7858,10745,9334,12026,7858,10745,9334,12026,22364,25871,24469,24835,-142,-211,23,-0.556863,-0.827451,0.090196,0,69,14970
2026-05-18T07:28:50.574+00:00,1779089330574382000,307,R,7856,10744,9333,12024,7856,10744,9333,12024,22367,25873,24468,24836,-142,-212,23,-0.556863,-0.831373,0.090196,0,69,24970
2026-05-18T07:28:50.574+00:00,1779089330574552000,308,R,7859,10746,9338,12025,7859,10746,9338,12025,22369,25869,24472,24839,-141,-211,23,-0.552941,-0.827451,0.090196,0,69,34970
2026-05-18T07:28:50.574+00:00,1779089330574628000,309,R,7856,10748,9337,12025,7856,10748,9337,12025,22371,25872,24470,24840,-141,-211,23,-0.552941,-0.827451,0.090196,0,69,44970
2026-05-18T07:28:50.574+00:00,1779089330574705000,310,R,7862,10755,9343,12036,7862,10755,9343,12036,22375,25876,24480,24846,-141,-211,23,-0.552941,-0.827451,0.090196,0,69,d5050
2026-05-18T07:28:50.574+00:00,1779089330574773000,311,R,7862,10753,9340,12033,7862,10753,9340,12033,22371,25877,24477,24845,-141,-211,22,-0.552941,-0.827451,0.086275,0,69,e5050
2026-05-18T07:28:50.574+00:00,1779089330574849000,312,R,7858,10748,9337,12027,7858,10748,9337,12027,22371,25871,24469,24840,-142,-212,22,-0.556863,-0.831373,0.086275,0,69,f5050
2026-05-18T07:28:50.724+00:00,1779089330725043000,313,R,7855,10736,9335,12019,7855,10736,9335,12019,22367,25870,24460,24838,-142,-213,23,-0.556863,-0.835294,0.090196,0,69,05050
2026-05-18T07:28:50.725+00:00,1779089330725200000,314,R,7855,10734,9335,12011,7855,10734,9335,12011,22365,25871,24459,24831,-143,-212,22,-0.560784,-0.831373,0.086275,0,69,15050
2026-05-18T07:28:50.725+00:00,1779089330725255000,315,R,7842,10717,9323,11996,7842,10717,9323,11996,22344,25850,24430,24806,-144,-211,22,-0.564706,-0.827451,0.086275,0,69,a5130
2026-05-18T07:28:50.725+00:00,1779089330725306000,316,R,7843,10716,9324,11992,7843,10716,9324,11992,22343,25852,24431,24801,-141,-212,22,-0.552941,-0.831373,0.086275,0,69,b5130
2026-05-18T07:28:50.725+00:00,1779089330725353000,317,R,7841,10718,9324,11990,7841,10718,9324,11990,22343,25849,24432,24804,-142,-212,22,-0.556863,-0.831373,0.086275,0,69,c5130
2026-05-18T07:28:50.873+00:00,1779089330873761000,318,R,7841,10713,9322,11989,7841,10713,9322,11989,22341,25848,24428,24799,-143,-213,21,-0.560784,-0.835294,0.082353,0,69,d5130
2026-05-18T07:28:50.873+00:00,1779089330873830000,319,R,7842,10712,9321,11988,7842,10712,9321,11988,22338,25847,24431,24801,-141,-212,23,-0.552941,-0.831373,0.090196,0,69,e5130
2026-05-18T07:28:50.873+00:00,1779089330873862000,320,R,7839,10715,9320,11988,7839,10715,9320,11988,22336,25845,24427,24796,-142,-211,22,-0.556863,-0.827451,0.086275,0,69,65200
2026-05-18T07:28:50.873+00:00,1779089330873890000,321,R,7837,10713,9316,11986,7837,10713,9316,11986,22339,25845,24425,24797,-141,-211,22,-0.552941,-0.827451,0.086275,0,69,75200
2026-05-18T07:28:50.873+00:00,1779089330873916000,322,R,7838,10714,9319,11985,7838,10714,9319,11985,22338,25844,24427,24797,-141,-211,23,-0.552941,-0.827451,0.090196,0,69,85200
2026-05-18T07:28:51.024+00:00,1779089331024310000,323,R,7837,10713,9321,11987,7837,10713,9321,11987,22337,25840,24423,24794,-141,-210,23,-0.552941,-0.823529,0.090196,0,69,95200
2026-05-18T07:28:51.024+00:00,1779089331024488000,324,R,7837,10712,9318,11986,7837,10712,9318,11986,22338,25844,24423,24793,-142,-211,23,-0.556863,-0.827451,0.090196,0,69,a5200
2026-05-18T07:28:51.024+00:00,1779089331024571000,325,R,7839,10714,9321,11985,7839,10714,9321,11985,22337,25851,24429,24796,-142,-214,23,-0.556863,-0.839216,0.090196,0,69,25270
2026-05-18T07:28:51.024+00:00,1779089331024656000,326,R,7840,10719,9327,11986,7840,10719,9327,11986,22339,25855,24424,24792,-141,-215,22,-0.552941,-0.843137,0.086275,0,69,35270
2026-05-18T07:28:51.024+00:00,1779089331024720000,327,R,7840,10712,9325,11985,7840,10712,9325,11985,22343,25857,24426,24787,-140,-213,21,-0.54902,-0.835294,0.082353,0,69,45270
2026-05-18T07:28:51.173+00:00,1779089331173351000,328,R,7844,10714,9329,11985,7844,10714,9329,11985,22341,25862,24425,24785,-139,-212,21,-0.545098,-0.831373,0.082353,0,69,55270
2026-05-18T07:28:51.173+00:00,1779089331173458000,329,R,7843,10714,9329,11984,7843,10714,9329,11984,22347,25868,24424,24788,-138,-210,21,-0.541176,-0.823529,0.082353,0,69,65270
2026-05-18T07:28:51.173+00:00,1779089331173497000,330,R,7849,10719,9339,11988,7849,10719,9339,11988,22353,25888,24429,24789,-147,-210,26,-0.576471,-0.823529,0.101961,0,69,e5340
2026-05-18T07:28:51.173+00:00,1779089331173532000,331,R,7848,10729,9336,12003,7848,10729,9336,12003,22357,25887,24426,24791,-149,-209,27,-0.584314,-0.819608,0.105882,0,69,f5340
2026-05-18T07:28:51.173+00:00,1779089331173567000,332,R,7849,10720,9337,11989,7849,10720,9337,11989,22357,25890,24429,24791,-151,-207,26,-0.592157,-0.811765,0.101961,0,69,05340
2026-05-18T07:28:51.323+00:00,1779089331323197000,333,R,7852,10722,9342,11995,7852,10722,9342,11995,22355,25885,24428,24789,-151,-204,27,-0.592157,-0.8,0.105882,0,69,15340
2026-05-18T07:28:51.323+00:00,1779089331323280000,334,R,7853,10724,9340,11994,7853,10724,9340,11994,22359,25892,24430,24792,-152,-201,28,-0.596078,-0.788235,0.109804,0,69,25340
2026-05-18T07:28:51.323+00:00,1779089331323344000,335,R,7853,10721,9339,11994,7853,10721,9339,11994,22363,25892,24430,24792,-153,-201,28,-0.6,-0.788235,0.109804,0,69,35340
2026-05-18T07:28:51.323+00:00,1779089331323395000,336,R,7857,10729,9344,12000,7857,10729,9344,12000,22369,25901,24437,24803,-161,-193,29,-0.631373,-0.756863,0.113725,0,69,a5400
2026-05-18T07:28:51.323+00:00,1779089331323441000,337,R,7858,10727,9341,11993,7858,10727,9341,11993,22368,25901,24437,24801,-164,-192,31,-0.643137,-0.752941,0.121569,0,69,b5400
2026-05-18T07:28:51.473+00:00,1779089331473535000,338,R,7858,10733,9345,12002,7858,10733,9345,12002,22373,25900,24440,24804,-166,-191,31,-0.65098,-0.74902,0.121569,0,69,c5400
2026-05-18T07:28:51.473+00:00,1779089331473670000,339,R,7859,10734,9347,12005,7859,10734,9347,12005,22371,25900,24441,24804,-168,-190,32,-0.658824,-0.745098,0.12549,0,69,d5400
2026-05-18T07:28:51.473+00:00,1779089331473748000,340,R,7860,10736,9346,12007,7860,10736,9346,12007,22375,25905,24443,24806,-169,-190,32,-0.662745,-0.745098,0.12549,0,69,e5400
2026-05-18T07:28:51.473+00:00,1779089331473804000,341,R,7849,10705,9338,11976,7849,10705,9338,11976,22357,25889,24405,24776,-175,-179,33,-0.686275,-0.701961,0.129412,0,69,65470
2026-05-18T07:28:51.473+00:00,1779089331473849000,342,R,7855,10700,9338,11980,7855,10700,9338,11980,22357,25884,24403,24772,-178,-178,34,-0.698039,-0.698039,0.133333,0,69,75470
2026-05-18T07:28:51.624+00:00,1779089331624994000,343,R,7846,10700,9332,11971,7846,10700,9332,11971,22353,25887,24398,24768,-178,-176,33,-0.698039,-0.690196,0.129412,0,69,85470
2026-05-18T07:28:51.625+00:00,1779089331625136000,344,R,7845,10697,9333,11968,7845,10697,9333,11968,22357,25881,24397,24767,-179,-176,34,-0.701961,-0.690196,0.133333,0,69,95470
2026-05-18T07:28:51.625+00:00,1779089331625211000,345,R,7841,10696,9332,11968,7841,10696,9332,11968,22356,25885,24391,24763,-179,-176,33,-0.701961,-0.690196,0.129412,0,69,a5470
2026-05-18T07:28:51.625+00:00,1779089331625277000,346,R,7838,10685,9324,11957,7838,10685,9324,11957,22344,25864,24381,24755,-182,-175,33,-0.713725,-0.686275,0.129412,0,69,15530
2026-05-18T07:28:51.625+00:00,1779089331625342000,347,R,7837,10689,9322,11958,7837,10689,9322,11958,22342,25868,24381,24753,-184,-175,34,-0.721569,-0.686275,0.133333,0,69,25530
2026-05-18T07:28:51.625+00:00,1779089331625597000,348,R,7829,10687,9327,11953,7829,10687,9327,11953,22344,25866,24377,24750,-185,-174,34,-0.72549,-0.682353,0.133333,0,69,35530
2026-05-18T07:28:51.774+00:00,1779089331774928000,349,R,7839,10686,9326,11956,7839,10686,9326,11956,22343,25870,24378,24745,-189,-171,35,-0.741176,-0.670588,0.137255,0,69,45530
2026-05-18T07:28:51.775+00:00,1779089331775065000,350,R,7841,10682,9332,11951,7841,10682,9332,11951,22349,25880,24369,24742,-188,-168,36,-0.737255,-0.658824,0.141176,0,69,55530
2026-05-18T07:28:51.775+00:00,1779089331775138000,351,R,7852,10665,9351,11938,7852,10665,9351,11938,22371,25930,24329,24715,-186,-173,35,-0.729412,-0.678431,0.137255,0,69,e5610
2026-05-18T07:28:51.775+00:00,1779089331775206000,352,R,7860,10677,9349,11943,7860,10677,9349,11943,22374,25927,24332,24715,-187,-171,35,-0.733333,-0.670588,0.137255,0,69,f5610
2026-05-18T07:28:51.775+00:00,1779089331775270000,353,R,7852,10669,9349,11937,7852,10669,9349,11937,22370,25926,24334,24716,-187,-170,37,-0.733333,-0.666667,0.145098,0,69,05610
2026-05-18T07:28:51.923+00:00,1779089331923646000,354,R,7847,10667,9350,11946,7847,10667,9350,11946,22367,25925,24334,24718,-191,-170,37,-0.74902,-0.666667,0.145098,0,69,15610
2026-05-18T07:28:51.923+00:00,1779089331923791000,355,R,7848,10670,9344,11944,7848,10670,9344,11944,22369,25919,24341,24722,-191,-168,37,-0.74902,-0.658824,0.145098,0,69,25610
2026-05-18T07:28:51.923+00:00,1779089331923868000,356,R,7841,10687,9329,11962,7841,10687,9329,11962,22349,25876,24372,24756,-192,-170,36,-0.752941,-0.666667,0.141176,0,69,a5680
2026-05-18T07:28:51.923+00:00,1779089331923938000,357,R,7838,10687,9334,11968,7838,10687,9334,11968,22350,25877,24379,24761,-191,-168,37,-0.74902,-0.658824,0.145098,0,69,b5680
2026-05-18T07:28:51.923+00:00,1779089331924018000,358,R,7841,10688,9329,11966,7841,10688,9329,11966,22346,25871,24381,24760,-190,-168,36,-0.745098,-0.658824,0.141176,0,69,c5680
2026-05-18T07:28:52.073+00:00,1779089332073803000,359,R,7840,10692,9325,11965,7840,10692,9325,11965,22345,25871,24384,24764,-190,-168,36,-0.745098,-0.658824,0.141176,0,69,d5680
2026-05-18T07:28:52.073+00:00,1779089332073981000,360,R,7838,10691,9325,11967,7838,10691,9325,11967,22345,25871,24387,24768,-191,-169,36,-0.74902,-0.662745,0.141176,0,69,e5680
2026-05-18T07:28:52.074+00:00,1779089332074068000,361,R,7840,10704,9325,11979,7840,10704,9325,11979,22348,25870,24404,24779,-190,-168,38,-0.745098,-0.658824,0.14902,0,69,65750
2026-05-18T07:28:52.074+00:00,1779089332074134000,362,R,7843,10705,9319,11979,7843,10705,9319,11979,22339,25863,24402,24771,-188,-168,37,-0.737255,-0.658824,0.145098,0,69,75750
2026-05-18T07:28:52.074+00:00,1779089332074198000,363,R,7844,10705,9326,11978,7844,10705,9326,11978,22350,25868,24405,24786,-189,-170,36,-0.741176,-0.666667,0.141176,0,69,85750
2026-05-18T07:28:52.224+00:00,1779089332224132000,364,R,7843,10705,9323,11979,7843,10705,9323,11979,22346,25861,24407,24785,-189,-168,39,-0.741176,-0.658824,0.152941,0,69,95750
2026-05-18T07:28:52.224+00:00,1779089332224228000,365,R,7842,10707,9328,11983,7842,10707,9328,11983,22350,25870,24408,24781,-191,-169,40,-0.74902,-0.662745,0.156863,0,69,a5750
2026-05-18T07:28:52.224+00:00,1779089332224261000,366,R,7843,10709,9326,11979,7843,10709,9326,11979,22351,25870,24411,24787,-189,-166,40,-0.741176,-0.65098,0.156863,0,69,b5750
2026-05-18T07:28:52.224+00:00,1779089332224288000,367,R,7846,10712,9328,11988,7846,10712,9328,11988,22354,25870,24419,24795,-192,-162,41,-0.752941,-0.635294,0.160784,0,69,15800
2026-05-18T07:28:52.224+00:00,1779089332224312000,368,R,7842,10711,9329,11988,7842,10711,9329,11988,22354,25864,24417,24792,-191,-162,40,-0.74902,-0.635294,0.156863,0,69,25800
2026-05-18T07:28:52.375+00:00,1779089332375128000,369,R,7850,10706,9326,11984,7850,10706,9326,11984,22349,25862,24412,24793,-192,-163,41,-0.752941,-0.639216,0.160784,0,69,35800
2026-05-18T07:28:52.375+00:00,1779089332375281000,370,R,7840,10702,9322,11979,7840,10702,9322,11979,22349,25863,24404,24789,-192,-162,42,-0.752941,-0.635294,0.164706,0,69,45800
2026-05-18T07:28:52.375+00:00,1779089332375379000,371,R,7841,10695,9322,11972,7841,10695,9322,11972,22349,25856,24402,24781,-193,-163,42,-0.756863,-0.639216,0.164706,0,69,55800
2026-05-18T07:28:52.375+00:00,1779089332375465000,372,R,7827,10683,9310,11955,7827,10683,9310,11955,22325,25836,24388,24761,-194,-165,44,-0.760784,-0.647059,0.172549,0,69,e5880
2026-05-18T07:28:52.375+00:00,1779089332375540000,373,R,7825,10681,9308,11951,7825,10681,9308,11951,22325,25839,24374,24751,-193,-166,43,-0.756863,-0.65098,0.168627,0,69,f5880
2026-05-18T07:28:52.672+00:00,1779089332672860000,374,R,7824,10682,9305,11952,7824,10682,9305,11952,22326,25830,24387,24757,-192,-165,43,-0.752941,-0.647059,0.168627,0,69,05880
2026-05-18T07:28:52.672+00:00,1779089332673009000,375,R,7824,10681,9305,11950,7824,10681,9305,11950,22320,25827,24384,24761,-191,-164,43,-0.74902,-0.643137,0.168627,0,69,15880
2026-05-18T07:28:52.673+00:00,1779089332673308000,376,R,7824,10681,9304,11951,7824,10681,9304,11951,22320,25828,24383,24758,-191,-164,43,-0.74902,-0.643137,0.168627,0,69,25880
2026-05-18T07:28:52.673+00:00,1779089332673383000,377,R,7823,10684,9302,11955,7823,10684,9302,11955,22319,25822,24388,24756,-190,-167,42,-0.745098,-0.654902,0.164706,0,69,95940
2026-05-18T07:28:52.673+00:00,1779089332673446000,378,R,7822,10682,9302,11947,7822,10682,9302,11947,22317,25823,24385,24755,-190,-167,41,-0.745098,-0.654902,0.160784,0,69,a5940
2026-05-18T07:28:52.673+00:00,1779089332673511000,379,R,7822,10682,9305,11951,7822,10682,9305,11951,22313,25818,24383,24748,-188,-166,39,-0.737255,-0.65098,0.152941,0,69,b5940
2026-05-18T07:28:52.821+00:00,1779089332821699000,380,R,7822,10681,9303,11949,7822,10681,9303,11949,22316,25820,24386,24752,-186,-167,39,-0.729412,-0.654902,0.152941,0,69,c5940
2026-05-18T07:28:52.821+00:00,1779089332821854000,381,R,7820,10679,9300,11947,7820,10679,9300,11947,22320,25822,24382,24754,-186,-167,39,-0.729412,-0.654902,0.152941,0,69,d5940
2026-05-18T07:28:52.821+00:00,1779089332821962000,382,R,7823,10684,9300,11952,7823,10684,9300,11952,22313,25818,24385,24756,-188,-167,37,-0.737255,-0.654902,0.145098,0,69,56010
2026-05-18T07:28:52.822+00:00,1779089332822036000,383,R,7824,10687,9300,11953,7824,10687,9300,11953,22317,25820,24388,24755,-190,-168,38,-0.745098,-0.658824,0.14902,0,69,66010
2026-05-18T07:28:52.822+00:00,1779089332822103000,384,R,7823,10686,9303,11951,7823,10686,9303,11951,22317,25821,24389,24757,-191,-167,39,-0.74902,-0.654902,0.152941,0,69,76010
2026-05-18T07:28:52.971+00:00,1779089332972005000,385,R,7824,10686,9305,11955,7824,10686,9305,11955,22317,25825,24393,24756,-192,-167,39,-0.752941,-0.654902,0.152941,0,69,86010
2026-05-18T07:28:52.972+00:00,1779089332972069000,386,R,7824,10689,9303,11955,7824,10689,9303,11955,22317,25825,24396,24757,-191,-165,39,-0.74902,-0.647059,0.152941,0,69,96010
2026-05-18T07:28:52.972+00:00,1779089332972089000,387,R,7824,10693,9304,11961,7824,10693,9304,11961,22320,25828,24401,24767,-193,-165,40,-0.756863,-0.647059,0.156863,0,69,16080
2026-05-18T07:28:52.972+00:00,1779089332972106000,388,R,7826,10696,9308,11963,7826,10696,9308,11963,22324,25832,24405,24765,-192,-164,40,-0.752941,-0.643137,0.156863,0,69,26080
2026-05-18T07:28:52.972+00:00,1779089332972122000,389,R,7828,10695,9309,11963,7828,10695,9309,11963,22326,25831,24404,24767,-192,-164,40,-0.752941,-0.643137,0.156863,0,69,36080
2026-05-18T07:28:53.122+00:00,1779089333122850000,390,R,7828,10698,9306,11963,7828,10698,9306,11963,22326,25831,24406,24768,-193,-165,40,-0.756863,-0.647059,0.156863,0,69,46080
2026-05-18T07:28:53.123+00:00,1779089333123018000,391,R,7830,10699,9307,11967,7830,10699,9307,11967,22326,25831,24409,24769,-192,-164,40,-0.752941,-0.643137,0.156863,0,69,56080
2026-05-18T07:28:53.123+00:00,1779089333123106000,392,R,7832,10708,9313,11976,7832,10708,9313,11976,22334,25839,24420,24779,-192,-165,40,-0.752941,-0.647059,0.156863,0,69,d6150
2026-05-18T07:28:53.123+00:00,1779089333123184000,393,R,7834,10703,9311,11975,7834,10703,9311,11975,22333,25839,24416,24778,-191,-164,39,-0.74902,-0.643137,0.152941,0,69,e6150
2026-05-18T07:28:53.123+00:00,1779089333123252000,394,R,7833,10699,9312,11971,7833,10699,9312,11971,22337,25834,24418,24779,-190,-166,38,-0.745098,-0.65098,0.14902,0,69,f6150
2026-05-18T07:28:53.272+00:00,1779089333272055000,395,R,7832,10695,9310,11963,7832,10695,9310,11963,22327,25832,24405,24774,-191,-168,37,-0.74902,-0.658824,0.145098,0,69,06150
2026-05-18T07:28:53.272+00:00,1779089333272253000,396,R,7827,10690,9306,11956,7827,10690,9306,11956,22327,25830,24401,24768,-191,-168,37,-0.74902,-0.658824,0.145098,0,69,16150
2026-05-18T07:28:53.272+00:00,1779089333272335000,397,R,7820,10675,9298,11940,7820,10675,9298,11940,22312,25809,24376,24741,-190,-168,39,-0.745098,-0.658824,0.152941,0,69,96220
2026-05-18T07:28:53.272+00:00,1779089333272403000,398,R,7815,10672,9296,11940,7815,10672,9296,11940,22310,25811,24377,24740,-191,-169,40,-0.74902,-0.662745,0.156863,0,69,a6220
2026-05-18T07:28:53.272+00:00,1779089333272467000,399,R,7816,10670,9293,11937,7816,10670,9293,11937,22308,25806,24372,24742,-191,-169,40,-0.74902,-0.662745,0.156863,0,69,b6220
2026-05-18T07:28:53.421+00:00,1779089333421409000,400,R,7814,10670,9293,11937,7814,10670,9293,11937,22307,25807,24372,24739,-191,-167,39,-0.74902,-0.654902,0.152941,0,69,c6220
2026-05-18T07:28:53.421+00:00,1779089333421535000,401,R,7815,10671,9291,11933,7815,10671,9291,11933,22306,25806,24370,24737,-190,-169,37,-0.745098,-0.662745,0.145098,0,69,d6220
2026-05-18T07:28:53.421+00:00,1779089333421609000,402,R,7815,10669,9294,11934,7815,10669,9294,11934,22304,25803,24370,24735,-190,-168,38,-0.745098,-0.658824,0.14902,0,69,e6220
2026-05-18T07:28:53.421+00:00,1779089333421677000,403,R,7814,10670,9292,11933,7814,10670,9292,11933,22306,25803,24372,24737,-192,-166,40,-0.752941,-0.65098,0.156863,0,69,56280
2026-05-18T07:28:53.421+00:00,1779089333421742000,404,R,7813,10666,9292,11934,7813,10666,9292,11934,22307,25806,24375,24736,-192,-166,40,-0.752941,-0.65098,0.156863,0,69,66280
2026-05-18T07:28:53.572+00:00,1779089333572638000,405,R,7814,10671,9292,11935,7814,10671,9292,11935,22304,25804,24372,24733,-191,-165,40,-0.74902,-0.647059,0.156863,0,69,76280
2026-05-18T07:28:53.572+00:00,1779089333572763000,406,R,7815,10670,9291,11933,7815,10670,9291,11933,22305,25805,24372,24735,-191,-165,41,-0.74902,-0.647059,0.160784,0,69,86280
2026-05-18T07:28:53.572+00:00,1779089333572834000,407,R,7814,10669,9291,11934,7814,10669,9291,11934,22305,25804,24372,24732,-190,-165,40,-0.745098,-0.647059,0.156863,0,69,96280
2026-05-18T07:28:53.572+00:00,1779089333572899000,408,R,7815,10672,9292,11936,7815,10672,9292,11936,22304,25804,24374,24737,-190,-168,40,-0.745098,-0.658824,0.156863,0,69,f6330
2026-05-18T07:28:53.572+00:00,1779089333572964000,409,R,7816,10671,9294,11937,7816,10671,9294,11937,22307,25806,24376,24736,-190,-167,40,-0.745098,-0.654902,0.156863,0,69,06330
2026-05-18T07:28:53.573+00:00,1779089333573036000,410,R,7816,10673,9294,11937,7816,10673,9294,11937,22311,25808,24376,24735,-188,-168,39,-0.737255,-0.658824,0.152941,0,69,16330
2026-05-18T07:28:53.722+00:00,1779089333722461000,411,R,7815,10673,9293,11937,7815,10673,9293,11937,22309,25811,24377,24736,-188,-169,39,-0.737255,-0.662745,0.152941,0,69,26330
2026-05-18T07:28:53.722+00:00,1779089333722578000,412,R,7814,10674,9294,11942,7814,10674,9294,11942,22308,25806,24380,24738,-188,-168,39,-0.737255,-0.658824,0.152941,0,69,36330
2026-05-18T07:28:53.722+00:00,1779089333722649000,413,R,7822,10683,9300,11946,7822,10683,9300,11946,22315,25813,24393,24750,-187,-169,38,-0.733333,-0.662745,0.14902,0,69,b6400
2026-05-18T07:28:53.722+00:00,1779089333722717000,414,R,7819,10683,9298,11947,7819,10683,9298,11947,22316,25820,24394,24754,-187,-169,39,-0.733333,-0.662745,0.152941,0,69,c6400
2026-05-18T07:28:53.722+00:00,1779089333722781000,415,R,7821,10686,9301,11951,7821,10686,9301,11951,22316,25816,24391,24750,-187,-169,39,-0.733333,-0.662745,0.152941,0,69,d6400
2026-05-18T07:28:53.872+00:00,1779089333872526000,416,R,7823,10689,9299,11950,7823,10689,9299,11950,22314,25817,24394,24751,-186,-168,38,-0.729412,-0.658824,0.14902,0,69,e6400
2026-05-18T07:28:53.872+00:00,1779089333872644000,417,R,7822,10686,9300,11953,7822,10686,9300,11953,22318,25814,24397,24755,-187,-168,39,-0.733333,-0.658824,0.152941,0,69,f6400
2026-05-18T07:28:53.872+00:00,1779089333872718000,418,R,7831,10702,9310,11967,7831,10702,9310,11967,22327,25830,24418,24770,-191,-167,43,-0.74902,-0.654902,0.168627,0,69,96490
2026-05-18T07:28:53.872+00:00,1779089333872786000,419,R,7830,10702,9308,11972,7830,10702,9308,11972,22334,25831,24420,24776,-190,-167,41,-0.745098,-0.654902,0.160784,0,69,a6490
2026-05-18T07:28:53.872+00:00,1779089333872851000,420,R,7829,10701,9305,11966,7829,10701,9305,11966,22333,25832,24415,24774,-190,-167,41,-0.745098,-0.654902,0.160784,0,69,b6490
2026-05-18T07:28:54.022+00:00,1779089334022417000,421,R,7827,10695,9302,11958,7827,10695,9302,11958,22326,25828,24409,24768,-191,-168,40,-0.74902,-0.658824,0.156863,0,69,c6490
2026-05-18T07:28:54.022+00:00,1779089334022537000,422,R,7827,10689,9301,11954,7827,10689,9301,11954,22322,25825,24404,24765,-189,-168,39,-0.741176,-0.658824,0.152941,0,69,d6490
2026-05-18T07:28:54.022+00:00,1779089334022760000,423,R,7814,10672,9291,11935,7814,10672,9291,11935,22309,25806,24382,24742,-189,-168,40,-0.741176,-0.658824,0.156863,0,69,56560
2026-05-18T07:28:54.022+00:00,1779089334022830000,424,R,7816,10667,9291,11939,7816,10667,9291,11939,22309,25806,24377,24737,-189,-168,40,-0.741176,-0.658824,0.156863,0,69,66560
2026-05-18T07:28:54.022+00:00,1779089334022896000,425,R,7814,10671,9288,11935,7814,10671,9288,11935,22305,25806,24376,24736,-189,-168,39,-0.741176,-0.658824,0.152941,0,69,76560
2026-05-18T07:28:54.171+00:00,1779089334171955000,426,R,7814,10669,9288,11931,7814,10669,9288,11931,22305,25798,24379,24734,-189,-169,39,-0.741176,-0.662745,0.152941,0,69,86560
2026-05-18T07:28:54.171+00:00,1779089334171988000,427,R,7814,10669,9289,11929,7814,10669,9289,11929,22306,25797,24378,24736,-189,-169,39,-0.741176,-0.662745,0.152941,0,69,96560
2026-05-18T07:28:54.172+00:00,1779089334172005000,428,R,7811,10672,9290,11934,7811,10672,9290,11934,22304,25801,24376,24741,-190,-168,38,-0.745098,-0.658824,0.14902,0,69,16630
2026-05-18T07:28:54.172+00:00,1779089334172024000,429,R,7803,10667,9278,11925,7803,10667,9278,11925,22302,25805,24377,24739,-191,-168,39,-0.74902,-0.658824,0.152941,0,69,26630
2026-05-18T07:28:54.172+00:00,1779089334172038000,430,R,7812,10671,9290,11931,7812,10671,9290,11931,22302,25802,24376,24738,-191,-168,39,-0.74902,-0.658824,0.152941,0,69,36630
2026-05-18T07:28:54.322+00:00,1779089334322025000,431,R,7813,10674,9290,11935,7813,10674,9290,11935,22303,25802,24377,24742,-190,-168,40,-0.745098,-0.658824,0.156863,0,69,46630
2026-05-18T07:28:54.322+00:00,1779089334322066000,432,R,7813,10672,9289,11932,7813,10672,9289,11932,22303,25808,24375,24734,-190,-166,40,-0.745098,-0.65098,0.156863,0,69,56630
2026-05-18T07:28:54.322+00:00,1779089334322087000,433,R,7811,10669,9287,11931,7811,10669,9287,11931,22306,25804,24373,24731,-191,-167,39,-0.74902,-0.654902,0.152941,0,69,66630
2026-05-18T07:28:54.322+00:00,1779089334322115000,434,R,7815,10673,9291,11935,7815,10673,9291,11935,22306,25802,24380,24732,-190,-167,39,-0.745098,-0.654902,0.152941,0,69,d6690
2026-05-18T07:28:54.322+00:00,1779089334322131000,435,R,7814,10689,9297,11952,7814,10689,9297,11952,22309,25805,24382,24735,-190,-168,40,-0.745098,-0.658824,0.156863,0,69,e6690
2026-05-18T07:28:54.472+00:00,1779089334472798000,436,R,7817,10677,9290,11937,7817,10677,9290,11937,22309,25804,24384,24738,-191,-167,40,-0.74902,-0.654902,0.156863,0,69,f6690
2026-05-18T07:28:54.472+00:00,1779089334472949000,437,R,7816,10676,9291,11935,7816,10676,9291,11935,22308,25806,24387,24737,-191,-167,39,-0.74902,-0.654902,0.152941,0,69,06690
2026-05-18T07:28:54.473+00:00,1779089334473024000,438,R,7815,10677,9291,11937,7815,10677,9291,11937,22312,25806,24385,24742,-190,-167,40,-0.745098,-0.654902,0.156863,0,69,16690
2026-05-18T07:28:54.473+00:00,1779089334473108000,439,R,7824,10682,9301,11942,7824,10682,9301,11942,22320,25825,24386,24734,-189,-167,40,-0.741176,-0.654902,0.156863,0,69,86750
2026-05-18T07:28:54.473+00:00,1779089334473174000,440,R,7825,10681,9305,11940,7825,10681,9305,11940,22329,25831,24384,24739,-189,-170,41,-0.741176,-0.666667,0.160784,0,69,96750
2026-05-18T07:28:54.772+00:00,1779089334772884000,441,R,7825,10672,9308,11931,7825,10672,9308,11931,22332,25843,24382,24732,-190,-168,41,-0.745098,-0.658824,0.160784,0,69,a6750
2026-05-18T07:28:54.773+00:00,1779089334773049000,442,R,7829,10679,9314,11938,7829,10679,9314,11938,22334,25847,24379,24733,-188,-169,41,-0.737255,-0.662745,0.160784,0,69,b6750
2026-05-18T07:28:54.773+00:00,1779089334773127000,443,R,7833,10678,9317,11937,7833,10678,9317,11937,22333,25862,24371,24730,-190,-169,43,-0.745098,-0.662745,0.168627,0,69,c6750
2026-05-18T07:28:54.773+00:00,1779089334773196000,444,R,7864,10671,9369,11934,7864,10671,9369,11934,22391,25972,24339,24703,-187,-166,43,-0.733333,-0.65098,0.168627,0,69,56830
2026-05-18T07:28:54.773+00:00,1779089334773263000,445,R,7859,10675,9359,11942,7859,10675,9359,11942,22393,25972,24345,24706,-187,-167,44,-0.733333,-0.654902,0.172549,0,69,66830
2026-05-18T07:28:54.773+00:00,1779089334773327000,446,R,7862,10676,9369,11940,7862,10676,9369,11940,22397,25973,24348,24712,-188,-166,44,-0.737255,-0.65098,0.172549,0,69,76830
2026-05-18T07:28:54.922+00:00,1779089334922143000,447,R,7863,10677,9367,11944,7863,10677,9367,11944,22396,25969,24348,24717,-188,-166,43,-0.737255,-0.65098,0.168627,0,69,86830
2026-05-18T07:28:54.922+00:00,1779089334922183000,448,R,7863,10681,9366,11946,7863,10681,9366,11946,22393,25965,24352,24720,-189,-167,43,-0.741176,-0.654902,0.168627,0,69,96830
2026-05-18T07:28:54.922+00:00,1779089334922200000,449,R,7846,10664,9333,11935,7846,10664,9333,11935,22368,25907,24342,24729,-188,-167,41,-0.737255,-0.654902,0.160784,0,69,16900
2026-05-18T07:28:54.922+00:00,1779089334922215000,450,R,7847,10660,9340,11939,7847,10660,9340,11939,22362,25904,24346,24734,-188,-166,42,-0.737255,-0.65098,0.164706,0,69,26900
2026-05-18T07:28:54.922+00:00,1779089334922306000,451,R,7844,10663,9331,11936,7844,10663,9331,11936,22360,25896,24343,24734,-189,-167,42,-0.741176,-0.654902,0.164706,0,69,36900
2026-05-18T07:28:55.072+00:00,1779089335072697000,452,R,7841,10663,9329,11939,7841,10663,9329,11939,22360,25894,24341,24733,-189,-166,41,-0.741176,-0.65098,0.160784,0,69,46900
2026-05-18T07:28:55.072+00:00,1779089335072811000,453,R,7840,10662,9329,11934,7840,10662,9329,11934,22355,25890,24343,24736,-189,-167,42,-0.741176,-0.654902,0.164706,0,69,56900
2026-05-18T07:28:55.072+00:00,1779089335072866000,454,R,7838,10659,9322,11931,7838,10659,9322,11931,22353,25883,24338,24726,-188,-169,42,-0.737255,-0.662745,0.164706,0,69,b6950
2026-05-18T07:28:55.072+00:00,1779089335072918000,455,R,7837,10658,9324,11931,7837,10658,9324,11931,22354,25881,24335,24723,-188,-168,42,-0.737255,-0.658824,0.164706,0,69,c6950
2026-05-18T07:28:55.072+00:00,1779089335072966000,456,R,7838,10658,9325,11933,7838,10658,9325,11933,22350,25884,24337,24721,-188,-168,44,-0.737255,-0.658824,0.172549,0,68,d6950
2026-05-18T07:28:55.222+00:00,1779089335222219000,457,R,7830,10648,9314,11918,7830,10648,9314,11918,22354,25885,24341,24730,-188,-168,43,-0.737255,-0.658824,0.168627,0,68,e6950
2026-05-18T07:28:55.222+00:00,1779089335222286000,458,R,7838,10662,9322,11936,7838,10662,9322,11936,22353,25885,24338,24723,-187,-166,42,-0.733333,-0.65098,0.164706,0,68,f6950
2026-05-18T07:28:55.222+00:00,1779089335222314000,459,R,7831,10667,9315,11943,7831,10667,9315,11943,22342,25862,24354,24742,-188,-168,41,-0.737255,-0.658824,0.160784,0,68,97040
2026-05-18T07:28:55.222+00:00,1779089335222339000,460,R,7833,10667,9318,11944,7833,10667,9318,11944,22344,25862,24358,24747,-188,-169,41,-0.737255,-0.662745,0.160784,0,68,a7040
2026-05-18T07:28:55.222+00:00,1779089335222364000,461,R,7833,10671,9312,11944,7833,10671,9312,11944,22345,25861,24361,24745,-189,-169,41,-0.741176,-0.662745,0.160784,0,68,b7040
2026-05-18T07:28:55.372+00:00,1779089335372867000,462,R,7831,10671,9313,11947,7831,10671,9313,11947,22343,25859,24363,24746,-187,-169,41,-0.733333,-0.662745,0.160784,0,68,c7040
2026-05-18T07:28:55.373+00:00,1779089335373024000,463,R,7831,10671,9314,11946,7831,10671,9314,11946,22341,25858,24361,24746,-187,-168,42,-0.733333,-0.658824,0.164706,0,68,d7040
2026-05-18T07:28:55.373+00:00,1779089335373096000,464,R,7832,10674,9311,11951,7832,10674,9311,11951,22342,25857,24365,24750,-188,-168,41,-0.737255,-0.658824,0.160784,0,68,e7040
2026-05-18T07:28:55.373+00:00,1779089335373162000,465,R,7834,10682,9313,11959,7834,10682,9313,11959,22340,25856,24377,24759,-188,-169,42,-0.737255,-0.662745,0.164706,0,68,57100
2026-05-18T07:28:55.373+00:00,1779089335373227000,466,R,7836,10682,9311,11956,7836,10682,9311,11956,22345,25855,24380,24758,-188,-168,41,-0.737255,-0.658824,0.160784,0,68,67100
2026-05-18T07:28:55.522+00:00,1779089335522285000,467,R,7834,10683,9312,11959,7834,10683,9312,11959,22344,25855,24384,24767,-188,-168,41,-0.737255,-0.658824,0.160784,0,68,77100
2026-05-18T07:28:55.522+00:00,1779089335522420000,468,R,7834,10686,9314,11962,7834,10686,9314,11962,22341,25852,24382,24763,-189,-167,41,-0.741176,-0.654902,0.160784,0,68,87100
2026-05-18T07:28:55.522+00:00,1779089335522494000,469,R,7834,10687,9310,11961,7834,10687,9310,11961,22345,25853,24388,24769,-188,-169,42,-0.737255,-0.662745,0.164706,0,68,97100
2026-05-18T07:28:55.522+00:00,1779089335522571000,470,R,7838,10697,9313,11973,7838,10697,9313,11973,22348,25850,24400,24780,-189,-169,41,-0.741176,-0.662745,0.160784,0,68,17170
2026-05-18T07:28:55.522+00:00,1779089335522636000,471,R,7837,10696,9311,11974,7837,10696,9311,11974,22344,25849,24399,24780,-189,-168,41,-0.741176,-0.658824,0.160784,0,68,27170
2026-05-18T07:28:55.675+00:00,1779089335675047000,472,R,7836,10698,9311,11974,7836,10698,9311,11974,22349,25848,24405,24786,-190,-168,41,-0.745098,-0.658824,0.160784,0,68,37170
2026-05-18T07:28:55.675+00:00,1779089335675182000,473,R,7838,10701,9310,11975,7838,10701,9310,11975,22343,25844,24404,24785,-187,-169,41,-0.733333,-0.662745,0.160784,0,68,47170
2026-05-18T07:28:55.675+00:00,1779089335675256000,474,R,7839,10703,9312,11979,7839,10703,9312,11979,22348,25843,24409,24787,-187,-168,41,-0.733333,-0.658824,0.160784,0,68,57170
2026-05-18T07:28:55.675+00:00,1779089335675321000,475,R,7836,10712,9299,11989,7836,10712,9299,11989,22342,25819,24424,24802,-189,-167,42,-0.741176,-0.654902,0.164706,0,68,c7230
2026-05-18T07:28:55.675+00:00,1779089335675386000,476,R,7834,10709,9300,11986,7834,10709,9300,11986,22344,25817,24416,24797,-188,-168,42,-0.737255,-0.658824,0.164706,0,68,d7230
2026-05-18T07:28:55.675+00:00,1779089335675449000,477,R,7832,10703,9296,11979,7832,10703,9296,11979,22342,25821,24411,24793,-188,-169,42,-0.737255,-0.662745,0.164706,0,68,e7230
2026-05-18T07:28:55.824+00:00,1779089335824449000,478,R,7828,10700,9294,11974,7828,10700,9294,11974,22338,25811,24409,24788,-187,-168,42,-0.733333,-0.658824,0.164706,0,68,f7230
2026-05-18T07:28:55.824+00:00,1779089335824596000,479,R,7828,10697,9293,11971,7828,10697,9293,11971,22334,25811,24403,24788,-189,-169,41,-0.741176,-0.662745,0.160784,0,68,07230
2026-05-18T07:28:55.824+00:00,1779089335824672000,480,R,7826,10684,9293,11961,7826,10684,9293,11961,22330,25813,24389,24770,-190,-167,42,-0.745098,-0.654902,0.164706,0,68,87300
2026-05-18T07:28:55.824+00:00,1779089335824741000,481,R,7827,10685,9294,11961,7827,10685,9294,11961,22328,25810,24383,24766,-190,-167,42,-0.745098,-0.654902,0.164706,0,68,97300
2026-05-18T07:28:55.824+00:00,1779089335824808000,482,R,7825,10684,9296,11962,7825,10684,9296,11962,22326,25811,24380,24768,-190,-168,41,-0.745098,-0.658824,0.160784,0,68,a7300
2026-05-18T07:28:55.974+00:00,1779089335974890000,483,R,7827,10683,9295,11960,7827,10683,9295,11960,22329,25815,24386,24771,-190,-168,41,-0.745098,-0.658824,0.160784,0,68,b7300
2026-05-18T07:28:55.975+00:00,1779089335975016000,484,R,7826,10683,9294,11960,7826,10683,9294,11960,22329,25813,24384,24765,-189,-167,42,-0.741176,-0.654902,0.164706,0,68,c7300
2026-05-18T07:28:55.975+00:00,1779089335975090000,485,R,7827,10686,9298,11964,7827,10686,9298,11964,22330,25816,24389,24772,-190,-168,42,-0.745098,-0.658824,0.164706,0,68,47370
2026-05-18T07:28:55.975+00:00,1779089335975158000,486,R,7826,10683,9296,11960,7826,10683,9296,11960,22328,25820,24383,24770,-188,-167,41,-0.737255,-0.654902,0.160784,0,68,57370
2026-05-18T07:28:55.975+00:00,1779089335975223000,487,R,7829,10685,9298,11963,7829,10685,9298,11963,22328,25811,24387,24770,-189,-166,41,-0.741176,-0.65098,0.160784,0,68,67370
2026-05-18T07:28:56.125+00:00,1779089336125788000,488,R,7826,10684,9297,11963,7826,10684,9297,11963,22329,25822,24385,24771,-189,-167,42,-0.741176,-0.654902,0.164706,0,68,77370
2026-05-18T07:28:56.125+00:00,1779089336125902000,489,R,7828,10682,9298,11964,7828,10682,9298,11964,22333,25821,24382,24771,-188,-167,42,-0.737255,-0.654902,0.164706,0,68,87370
2026-05-18T07:28:56.125+00:00,1779089336125973000,490,R,7831,10689,9303,11968,7831,10689,9303,11968,22336,25827,24392,24777,-190,-168,41,-0.745098,-0.658824,0.160784,0,68,07440
2026-05-18T07:28:56.126+00:00,1779089336126038000,491,R,7830,10689,9302,11971,7830,10689,9302,11971,22334,25827,24389,24779,-189,-168,40,-0.741176,-0.658824,0.156863,0,68,17440
2026-05-18T07:28:56.126+00:00,1779089336126103000,492,R,7832,10691,9303,11971,7832,10691,9303,11971,22334,25828,24388,24781,-189,-168,41,-0.741176,-0.658824,0.160784,0,68,27440
2026-05-18T07:28:56.422+00:00,1779089336422831000,493,R,7833,10690,9304,11972,7833,10690,9304,11972,22337,25826,24393,24781,-188,-168,40,-0.737255,-0.658824,0.156863,0,68,37440
2026-05-18T07:28:56.422+00:00,1779089336422975000,494,R,7832,10693,9301,11972,7832,10693,9301,11972,22336,25829,24399,24782,-188,-168,41,-0.737255,-0.658824,0.160784,0,68,47440
2026-05-18T07:28:56.423+00:00,1779089336423048000,495,R,7835,10700,9310,11983,7835,10700,9310,11983,22344,25838,24404,24791,-187,-168,41,-0.733333,-0.658824,0.160784,0,68,c7510
2026-05-18T07:28:56.423+00:00,1779089336423113000,496,R,7839,10699,9309,11985,7839,10699,9309,11985,22342,25840,24402,24793,-189,-168,41,-0.741176,-0.658824,0.160784,0,68,d7510
2026-05-18T07:28:56.423+00:00,1779089336423175000,497,R,7840,10703,9310,11983,7840,10703,9310,11983,22348,25843,24406,24796,-189,-168,42,-0.741176,-0.658824,0.164706,0,68,e7510
2026-05-18T07:28:56.572+00:00,1779089336572721000,498,R,7839,10705,9311,11985,7839,10705,9311,11985,22345,25841,24406,24797,-188,-168,41,-0.737255,-0.658824,0.160784,0,68,f7510
2026-05-18T07:28:56.572+00:00,1779089336572851000,499,R,7838,10705,9311,11988,7838,10705,9311,11988,22349,25843,24410,24798,-188,-168,41,-0.737255,-0.658824,0.160784,0,68,07510
2026-05-18T07:28:56.572+00:00,1779089336572927000,500,R,7842,10705,9310,11988,7842,10705,9310,11988,22345,25841,24410,24802,-188,-168,42,-0.737255,-0.658824,0.164706,0,68,17510
2026-05-18T07:28:56.572+00:00,1779089336572996000,501,R,7843,10715,9316,11998,7843,10715,9316,11998,22351,25855,24419,24807,-189,-167,42,-0.741176,-0.654902,0.164706,0,68,87570
2026-05-18T07:28:56.573+00:00,1779089336573060000,502,R,7845,10715,9318,12000,7845,10715,9318,12000,22357,25852,24425,24808,-189,-167,41,-0.741176,-0.654902,0.160784,0,68,97570
2026-05-18T07:28:56.722+00:00,1779089336722562000,503,R,7845,10717,9318,12002,7845,10717,9318,12002,22354,25852,24423,24809,-189,-166,41,-0.741176,-0.65098,0.160784,0,68,a7570
2026-05-18T07:28:56.722+00:00,1779089336722679000,504,R,7845,10719,9318,12003,7845,10719,9318,12003,22358,25855,24424,24813,-189,-169,42,-0.741176,-0.662745,0.164706,0,68,b7570
2026-05-18T07:28:56.722+00:00,1779089336722750000,505,R,7848,10718,9322,12002,7848,10718,9322,12002,22358,25854,24426,24810,-189,-168,41,-0.741176,-0.658824,0.160784,0,68,c7570
2026-05-18T07:28:56.722+00:00,1779089336722818000,506,R,7840,10695,9311,11984,7840,10695,9311,11984,22350,25843,24399,24801,-188,-168,41,-0.737255,-0.658824,0.160784,0,68,27620
2026-05-18T07:28:56.722+00:00,1779089336722886000,507,R,7837,10693,9310,11983,7837,10693,9310,11983,22344,25839,24393,24796,-188,-167,40,-0.737255,-0.654902,0.156863,0,68,37620
2026-05-18T07:28:56.872+00:00,1779089336872095000,508,R,7837,10691,9305,11979,7837,10691,9305,11979,22345,25839,24389,24794,-187,-165,41,-0.733333,-0.647059,0.160784,0,68,47620
2026-05-18T07:28:56.872+00:00,1779089336872211000,509,R,7838,10688,9308,11980,7838,10688,9308,11980,22342,25839,24390,24793,-188,-165,40,-0.737255,-0.647059,0.156863,0,68,57620
2026-05-18T07:28:56.872+00:00,1779089336872286000,510,R,7835,10689,9306,11978,7835,10689,9306,11978,22343,25833,24388,24793,-189,-168,41,-0.741176,-0.658824,0.160784,0,68,67620
2026-05-18T07:28:56.872+00:00,1779089336872351000,511,R,7831,10682,9302,11970,7831,10682,9302,11970,22332,25825,24380,24783,-188,-168,41,-0.737255,-0.658824,0.160784,0,68,e7690
2026-05-18T07:28:56.872+00:00,1779089336872416000,512,R,7831,10683,9303,11971,7831,10683,9303,11971,22332,25829,24381,24783,-188,-168,42,-0.737255,-0.658824,0.164706,0,68,f7690
2026-05-18T07:28:56.872+00:00,1779089336872478000,513,R,7831,10684,9303,11973,7831,10684,9303,11973,22334,25828,24380,24782,-189,-169,42,-0.741176,-0.662745,0.164706,0,68,07690
2026-05-18T07:28:57.022+00:00,1779089337022360000,514,R,7829,10685,9304,11975,7829,10685,9304,11975,22332,25830,24384,24785,-188,-166,41,-0.737255,-0.65098,0.160784,0,68,17690
2026-05-18T07:28:57.022+00:00,1779089337022464000,515,R,7833,10683,9305,11975,7833,10683,9305,11975,22336,25829,24383,24785,-188,-165,41,-0.737255,-0.647059,0.160784,0,68,27690
2026-05-18T07:28:57.022+00:00,1779089337022536000,516,R,7830,10684,9302,11975,7830,10684,9302,11975,22330,25826,24383,24786,-188,-168,39,-0.737255,-0.658824,0.152941,0,68,c7780
2026-05-18T07:28:57.022+00:00,1779089337022602000,517,R,7831,10683,9301,11975,7831,10683,9301,11975,22329,25826,24383,24785,-189,-168,39,-0.741176,-0.658824,0.152941,0,68,d7780
2026-05-18T07:28:57.022+00:00,1779089337022666000,518,R,7832,10689,9304,11979,7832,10689,9304,11979,22331,25827,24386,24785,-189,-168,39,-0.741176,-0.658824,0.152941,0,68,e7780
2026-05-18T07:28:57.172+00:00,1779089337172556000,519,R,7829,10687,9301,11979,7829,10687,9301,11979,22333,25829,24384,24785,-189,-168,40,-0.741176,-0.658824,0.156863,0,68,f7780
2026-05-18T07:28:57.172+00:00,1779089337172673000,520,R,7831,10686,9301,11975,7831,10686,9301,11975,22330,25827,24387,24788,-190,-168,40,-0.745098,-0.658824,0.156863,0,68,07780
2026-05-18T07:28:57.172+00:00,1779089337172746000,521,R,7833,10695,9307,11983,7833,10695,9307,11983,22335,25835,24395,24795,-189,-167,40,-0.741176,-0.654902,0.156863,0,68,87850
2026-05-18T07:28:57.172+00:00,1779089337172813000,522,R,7835,10696,9307,11983,7835,10696,9307,11983,22336,25830,24395,24793,-190,-168,41,-0.745098,-0.658824,0.160784,0,68,97850
2026-05-18T07:28:57.172+00:00,1779089337172878000,523,R,7836,10696,9308,11988,7836,10696,9308,11988,22338,25833,24399,24797,-189,-168,41,-0.741176,-0.658824,0.160784,0,68,a7850
2026-05-18T07:28:57.320+00:00,1779089337320928000,524,R,7836,10698,9306,11988,7836,10698,9306,11988,22336,25834,24399,24796,-190,-167,41,-0.745098,-0.654902,0.160784,0,68,b7850
2026-05-18T07:28:57.320+00:00,1779089337320960000,525,R,7837,10700,9310,11989,7837,10700,9310,11989,22335,25838,24399,24795,-189,-167,41,-0.741176,-0.654902,0.160784,0,68,c7850
2026-05-18T07:28:57.321+00:00,1779089337321011000,526,R,7841,10708,9313,12001,7841,10708,9313,12001,22344,25846,24409,24804,-189,-166,41,-0.741176,-0.65098,0.160784,0,68,37910
2026-05-18T07:28:57.321+00:00,1779089337321029000,527,R,7838,10706,9314,11995,7838,10706,9314,11995,22342,25843,24412,24810,-189,-167,41,-0.741176,-0.654902,0.160784,0,68,47910
2026-05-18T07:28:57.321+00:00,1779089337321043000,528,R,7842,10719,9322,12014,7842,10719,9322,12014,22347,25844,24409,24807,-190,-167,41,-0.745098,-0.654902,0.160784,0,68,57910
2026-05-18T07:28:57.473+00:00,1779089337473255000,529,R,7842,10709,9315,12001,7842,10709,9315,12001,22346,25843,24414,24811,-190,-167,41,-0.745098,-0.654902,0.160784,0,68,67910
2026-05-18T07:28:57.473+00:00,1779089337473398000,530,R,7839,10710,9315,12001,7839,10710,9315,12001,22347,25846,24415,24811,-190,-167,41,-0.745098,-0.654902,0.160784,0,68,77910
2026-05-18T07:28:57.473+00:00,1779089337473474000,531,R,7844,10713,9317,12002,7844,10713,9317,12002,22349,25850,24413,24815,-190,-167,42,-0.745098,-0.654902,0.164706,0,68,87910
2026-05-18T07:28:57.473+00:00,1779089337473542000,532,R,7847,10718,9322,12012,7847,10718,9322,12012,22353,25856,24423,24821,-190,-166,42,-0.745098,-0.65098,0.164706,0,68,e7960
2026-05-18T07:28:57.473+00:00,1779089337473617000,533,R,7848,10720,9321,12012,7848,10720,9321,12012,22352,25853,24426,24823,-189,-167,41,-0.741176,-0.654902,0.160784,0,68,f7960
2026-05-18T07:28:57.622+00:00,1779089337622472000,534,R,7847,10722,9319,12015,7847,10722,9319,12015,22356,25858,24426,24826,-189,-167,41,-0.741176,-0.654902,0.160784,0,68,07960
2026-05-18T07:28:57.622+00:00,1779089337622601000,535,R,7849,10717,9318,12009,7849,10717,9318,12009,22358,25857,24428,24824,-190,-168,41,-0.745098,-0.658824,0.160784,0,68,17960
2026-05-18T07:28:57.622+00:00,1779089337622688000,536,R,7848,10722,9324,12016,7848,10722,9324,12016,22360,25859,24432,24829,-188,-167,40,-0.737255,-0.654902,0.156863,0,68,27960
2026-05-18T07:28:57.622+00:00,1779089337622755000,537,R,7839,10696,9311,11990,7839,10696,9311,11990,22344,25843,24395,24802,-189,-165,40,-0.741176,-0.647059,0.156863,0,68,98020
2026-05-18T07:28:57.622+00:00,1779089337622818000,538,R,7838,10693,9311,11987,7838,10693,9311,11987,22340,25840,24397,24805,-187,-166,40,-0.733333,-0.65098,0.156863,0,68,a8020
2026-05-18T07:28:57.771+00:00,1779089337771446000,539,R,7837,10692,9310,11987,7837,10692,9310,11987,22339,25838,24391,24799,-189,-167,41,-0.741176,-0.654902,0.160784,0,68,b8020
2026-05-18T07:28:57.771+00:00,1779089337771574000,540,R,7836,10693,9312,11988,7836,10693,9312,11988,22341,25839,24391,24801,-189,-167,40,-0.741176,-0.654902,0.156863,0,68,c8020
2026-05-18T07:28:57.771+00:00,1779089337771645000,541,R,7840,10690,9312,11990,7840,10690,9312,11990,22339,25838,24388,24803,-189,-169,40,-0.741176,-0.662745,0.156863,0,68,d8020
2026-05-18T07:28:57.771+00:00,1779089337771710000,542,R,7834,10690,9307,11982,7834,10690,9307,11982,22331,25829,24390,24795,-190,-168,41,-0.745098,-0.658824,0.160784,0,67,58090
2026-05-18T07:28:57.771+00:00,1779089337771775000,543,R,7832,10687,9306,11982,7832,10687,9306,11982,22336,25831,24390,24796,-188,-166,41,-0.737255,-0.65098,0.160784,0,67,68090
2026-05-18T07:28:57.771+00:00,1779089337771839000,544,R,7835,10693,9307,11984,7835,10693,9307,11984,22335,25827,24388,24793,-189,-165,41,-0.741176,-0.647059,0.160784,0,67,78090
2026-05-18T07:28:57.921+00:00,1779089337921376000,545,R,7833,10690,9306,11983,7833,10690,9306,11983,22332,25828,24388,24793,-189,-167,41,-0.741176,-0.654902,0.160784,0,67,88090
2026-05-18T07:28:57.921+00:00,1779089337921498000,546,R,7836,10691,9319,11983,7836,10691,9319,11983,22333,25834,24384,24796,-190,-167,42,-0.745098,-0.654902,0.164706,0,67,98090
2026-05-18T07:28:57.921+00:00,1779089337921571000,547,R,7834,10692,9307,11987,7834,10692,9307,11987,22333,25827,24389,24793,-187,-168,41,-0.733333,-0.658824,0.160784,0,67,48190
2026-05-18T07:28:57.921+00:00,1779089337921636000,548,R,7830,10686,9294,11976,7830,10686,9294,11976,22337,25820,24391,24790,-189,-167,41,-0.741176,-0.654902,0.160784,0,67,58190
2026-05-18T07:28:57.921+00:00,1779089337921720000,549,R,7833,10695,9308,11986,7833,10695,9308,11986,22330,25828,24390,24794,-188,-168,41,-0.737255,-0.658824,0.160784,0,67,68190
2026-05-18T07:28:58.072+00:00,1779089338072149000,550,R,7832,10695,9307,11990,7832,10695,9307,11990,22330,25826,24390,24797,-188,-168,41,-0.737255,-0.658824,0.160784,0,67,78190
2026-05-18T07:28:58.072+00:00,1779089338072210000,551,R,7834,10695,9308,11990,7834,10695,9308,11990,22333,25826,24393,24795,-188,-169,39,-0.737255,-0.662745,0.152941,0,67,88190
2026-05-18T07:28:58.072+00:00,1779089338072239000,552,R,7839,10701,9311,11996,7839,10701,9311,11996,22337,25834,24401,24803,-189,-169,41,-0.741176,-0.662745,0.160784,0,67,f8250
2026-05-18T07:28:58.072+00:00,1779089338072264000,553,R,7840,10705,9312,11995,7840,10705,9312,11995,22336,25836,24401,24801,-189,-168,41,-0.741176,-0.658824,0.160784,0,67,08250
2026-05-18T07:28:58.072+00:00,1779089338072288000,554,R,7837,10711,9321,12007,7837,10711,9321,12007,22340,25836,24406,24804,-189,-168,40,-0.741176,-0.658824,0.156863,0,67,18250
2026-05-18T07:28:58.220+00:00,1779089338220569000,555,R,7840,10705,9315,12000,7840,10705,9315,12000,22343,25839,24407,24804,-189,-168,41,-0.741176,-0.658824,0.160784,0,67,28250
2026-05-18T07:28:58.220+00:00,1779089338220620000,556,R,7840,10708,9315,12001,7840,10708,9315,12001,22341,25839,24409,24806,-189,-167,41,-0.741176,-0.654902,0.160784,0,67,38250
2026-05-18T07:28:58.220+00:00,1779089338220637000,557,R,7845,10717,9318,12011,7845,10717,9318,12011,22347,25846,24420,24818,-189,-168,41,-0.741176,-0.658824,0.160784,0,67,c8330
2026-05-18T07:28:58.220+00:00,1779089338220651000,558,R,7846,10717,9320,12014,7846,10717,9320,12014,22343,25835,24425,24814,-190,-168,41,-0.745098,-0.658824,0.160784,0,67,d8330
2026-05-18T07:28:58.220+00:00,1779089338220664000,559,R,7845,10717,9319,12014,7845,10717,9319,12014,22351,25841,24423,24817,-189,-168,41,-0.741176,-0.658824,0.160784,0,67,e8330
2026-05-18T07:28:58.373+00:00,1779089338373239000,560,R,7848,10719,9319,12010,7848,10719,9319,12010,22350,25842,24429,24824,-189,-168,41,-0.741176,-0.658824,0.160784,0,67,f8330
2026-05-18T07:28:58.373+00:00,1779089338373274000,561,R,7847,10721,9323,12015,7847,10721,9323,12015,22350,25844,24425,24823,-189,-168,41,-0.741176,-0.658824,0.160784,0,67,08330
2026-05-18T07:28:58.373+00:00,1779089338373290000,562,R,7848,10722,9324,12020,7848,10722,9324,12020,22355,25848,24431,24828,-188,-168,40,-0.737255,-0.658824,0.156863,0,67,88400
2026-05-18T07:28:58.373+00:00,1779089338373303000,563,R,7848,10716,9321,12012,7848,10716,9321,12012,22356,25842,24420,24827,-190,-170,41,-0.745098,-0.666667,0.160784,0,67,98400
2026-05-18T07:28:58.373+00:00,1779089338373317000,564,R,7847,10711,9320,12006,7847,10711,9320,12006,22352,25842,24416,24821,-188,-169,39,-0.737255,-0.662745,0.152941,0,67,a8400
2026-05-18T07:28:58.523+00:00,1779089338523261000,565,R,7846,10706,9318,12004,7846,10706,9318,12004,22350,25841,24408,24814,-188,-169,40,-0.737255,-0.662745,0.156863,0,67,b8400
2026-05-18T07:28:58.523+00:00,1779089338523303000,566,R,7844,10705,9317,12001,7844,10705,9317,12001,22347,25838,24407,24810,-187,-168,40,-0.733333,-0.658824,0.156863,0,67,c8400
2026-05-18T07:28:58.523+00:00,1779089338523326000,567,R,7843,10703,9315,12000,7843,10703,9315,12000,22347,25834,24400,24807,-188,-168,40,-0.737255,-0.658824,0.156863,0,67,d8400
2026-05-18T07:28:58.523+00:00,1779089338523347000,568,R,7837,10697,9310,11991,7837,10697,9310,11991,22335,25825,24393,24800,-188,-169,40,-0.737255,-0.662745,0.156863,0,67,38450
2026-05-18T07:28:58.523+00:00,1779089338523368000,569,R,7838,10698,9311,11992,7838,10698,9311,11992,22336,25828,24393,24796,-189,-169,41,-0.741176,-0.662745,0.160784,0,67,48450
2026-05-18T07:28:58.673+00:00,1779089338673026000,570,R,7838,10693,9311,11992,7838,10693,9311,11992,22336,25831,24394,24795,-189,-168,41,-0.741176,-0.658824,0.160784,0,67,58450
2026-05-18T07:28:58.673+00:00,1779089338673059000,571,R,7838,10696,9310,11988,7838,10696,9310,11988,22334,25827,24392,24795,-189,-168,42,-0.741176,-0.658824,0.164706,0,68,68450
2026-05-18T07:28:58.673+00:00,1779089338673080000,572,R,7836,10697,9310,11991,7836,10697,9310,11991,22336,25828,24392,24794,-189,-167,42,-0.741176,-0.654902,0.164706,0,68,78450
2026-05-18T07:28:58.673+00:00,1779089338673140000,573,R,7834,10697,9310,11991,7834,10697,9310,11991,22332,25824,24392,24794,-190,-167,41,-0.745098,-0.654902,0.160784,0,68,f8520
2026-05-18T07:28:58.673+00:00,1779089338673160000,574,R,7836,10694,9308,11990,7836,10694,9308,11990,22330,25824,24392,24792,-189,-167,42,-0.741176,-0.654902,0.164706,0,68,08520
2026-05-18T07:28:58.823+00:00,1779089338823661000,575,R,7837,10697,9310,11993,7837,10697,9310,11993,22330,25819,24390,24793,-189,-168,41,-0.741176,-0.658824,0.160784,0,68,18520
2026-05-18T07:28:58.823+00:00,1779089338823783000,576,R,7835,10696,9311,11993,7835,10696,9311,11993,22334,25823,24392,24795,-190,-168,41,-0.745098,-0.658824,0.160784,0,68,28520
2026-05-18T07:28:58.823+00:00,1779089338823838000,577,R,7836,10699,9310,11990,7836,10699,9310,11990,22330,25824,24394,24790,-190,-168,41,-0.745098,-0.658824,0.160784,0,68,38520
2026-05-18T07:28:58.823+00:00,1779089338823886000,578,R,7837,10702,9312,11996,7837,10702,9312,11996,22332,25823,24403,24793,-189,-168,40,-0.741176,-0.658824,0.156863,0,68,a8580
2026-05-18T07:28:58.823+00:00,1779089338823932000,579,R,7838,10702,9313,11998,7838,10702,9313,11998,22336,25824,24398,24795,-188,-169,40,-0.737255,-0.662745,0.156863,0,68,b8580
2026-05-18T07:28:58.823+00:00,1779089338823978000,580,R,7839,10702,9310,11996,7839,10702,9310,11996,22335,25827,24398,24796,-187,-169,40,-0.733333,-0.662745,0.156863,0,68,c8580
2026-05-18T07:28:58.973+00:00,1779089338973660000,581,R,7841,10705,9314,11998,7841,10705,9314,11998,22328,25822,24402,24799,-188,-169,39,-0.737255,-0.662745,0.152941,0,68,d8580
2026-05-18T07:28:58.973+00:00,1779089338973809000,582,R,7839,10702,9312,11998,7839,10702,9312,11998,22338,25824,24404,24802,-188,-168,40,-0.737255,-0.658824,0.156863,0,68,e8580
2026-05-18T07:28:58.973+00:00,1779089338973885000,583,R,7844,10715,9316,12009,7844,10715,9316,12009,22343,25836,24418,24809,-189,-168,41,-0.741176,-0.658824,0.160784,0,68,78660
2026-05-18T07:28:58.973+00:00,1779089338973954000,584,R,7844,10713,9320,12009,7844,10713,9320,12009,22343,25835,24419,24806,-188,-168,41,-0.737255,-0.658824,0.160784,0,68,88660
2026-05-18T07:28:58.974+00:00,1779089338974021000,585,R,7845,10717,9319,12011,7845,10717,9319,12011,22340,25836,24419,24813,-189,-168,41,-0.741176,-0.658824,0.160784,0,68,98660
2026-05-18T07:28:59.417+00:00,1779089339417742000,586,R,7846,10718,9317,12011,7846,10718,9317,12011,22343,25838,24423,24811,-189,-167,41,-0.741176,-0.654902,0.160784,0,68,a8660
2026-05-18T07:28:59.417+00:00,1779089339417788000,587,R,7847,10719,9319,12013,7847,10719,9319,12013,22343,25836,24421,24813,-189,-167,41,-0.741176,-0.654902,0.160784,0,68,b8660
2026-05-18T07:28:59.417+00:00,1779089339417804000,588,R,7852,10729,9325,12022,7852,10729,9325,12022,22353,25845,24434,24823,-190,-167,42,-0.745098,-0.654902,0.164706,0,68,38730
2026-05-18T07:28:59.417+00:00,1779089339417818000,589,R,7853,10731,9326,12024,7853,10731,9326,12024,22354,25845,24436,24826,-188,-167,41,-0.737255,-0.654902,0.160784,0,68,48730
2026-05-18T07:28:59.417+00:00,1779089339417831000,590,R,7854,10730,9325,12025,7854,10730,9325,12025,22354,25847,24433,24827,-189,-168,42,-0.741176,-0.658824,0.164706,0,68,58730
2026-05-18T07:28:59.721+00:00,1779089339721737000,591,R,7852,10734,9328,12027,7852,10734,9328,12027,22352,25845,24432,24822,-189,-168,41,-0.741176,-0.658824,0.160784,0,68,68730
2026-05-18T07:28:59.721+00:00,1779089339721881000,592,R,7855,10733,9326,12027,7855,10733,9326,12027,22356,25844,24435,24827,-188,-167,40,-0.737255,-0.654902,0.156863,0,68,78730
2026-05-18T07:28:59.721+00:00,1779089339721953000,593,R,7841,10700,9312,11999,7841,10700,9312,11999,22339,25830,24398,24799,-188,-166,40,-0.737255,-0.65098,0.156863,0,68,f8800
2026-05-18T07:28:59.722+00:00,1779089339722019000,594,R,7838,10700,9313,11997,7838,10700,9313,11997,22338,25826,24396,24797,-189,-167,39,-0.741176,-0.654902,0.152941,0,68,08800
2026-05-18T07:28:59.722+00:00,1779089339722093000,595,R,7838,10699,9312,11995,7838,10699,9312,11995,22336,25828,24395,24795,-189,-168,40,-0.741176,-0.658824,0.156863,0,68,18800
2026-05-18T07:28:59.872+00:00,1779089339872158000,596,R,7838,10700,9311,11995,7838,10700,9311,11995,22334,25823,24393,24794,-189,-168,40,-0.741176,-0.658824,0.156863,0,68,28800
2026-05-18T07:28:59.872+00:00,1779089339872204000,597,R,7840,10696,9311,11993,7840,10696,9311,11993,22336,25822,24398,24792,-189,-168,40,-0.741176,-0.658824,0.156863,0,68,38800
2026-05-18T07:28:59.872+00:00,1779089339872221000,598,R,7839,10696,9311,11993,7839,10696,9311,11993,22334,25816,24389,24790,-188,-168,40,-0.737255,-0.658824,0.156863,0,68,48800
2026-05-18T07:28:59.872+00:00,1779089339872235000,599,R,7835,10696,9309,11991,7835,10696,9309,11991,22328,25816,24391,24782,-188,-167,41,-0.737255,-0.654902,0.160784,0,68,b8860
2026-05-18T07:28:59.872+00:00,1779089339872248000,600,R,7837,10700,9312,11990,7837,10700,9312,11990,22328,25817,24393,24786,-188,-164,41,-0.737255,-0.643137,0.160784,0,68,c8860
2026-05-18T07:29:00.022+00:00,1779089340022058000,601,R,7838,10701,9310,11989,7838,10701,9310,11989,22329,25814,24392,24783,-189,-166,42,-0.741176,-0.65098,0.164706,0,68,d8860
2026-05-18T07:29:00.022+00:00,1779089340022102000,602,R,7837,10698,9309,11991,7837,10698,9309,11991,22330,25820,24392,24783,-188,-168,42,-0.737255,-0.658824,0.164706,0,68,e8860
2026-05-18T07:29:00.022+00:00,1779089340022129000,603,R,7835,10700,9307,11990,7835,10700,9307,11990,22330,25818,24388,24780,-190,-167,43,-0.745098,-0.654902,0.168627,0,68,f8860
2026-05-18T07:29:00.022+00:00,1779089340022153000,604,R,7836,10697,9308,11990,7836,10697,9308,11990,22324,25815,24392,24782,-189,-168,42,-0.741176,-0.658824,0.164706,0,68,58910
2026-05-18T07:29:00.022+00:00,1779089340022176000,605,R,7835,10698,9306,11988,7835,10698,9306,11988,22327,25811,24394,24780,-188,-168,41,-0.737255,-0.658824,0.160784,0,68,68910
2026-05-18T07:29:00.172+00:00,1779089340172813000,606,R,7834,10700,9310,11991,7834,10700,9310,11991,22325,25816,24392,24782,-188,-168,41,-0.737255,-0.658824,0.160784,0,68,78910
2026-05-18T07:29:00.172+00:00,1779089340172991000,607,R,7836,10702,9308,11997,7836,10702,9308,11997,22324,25816,24395,24785,-188,-168,41,-0.737255,-0.658824,0.160784,0,68,88910
2026-05-18T07:29:00.173+00:00,1779089340173066000,608,R,7837,10700,9312,11992,7837,10700,9312,11992,22331,25815,24393,24784,-189,-168,41,-0.741176,-0.658824,0.160784,0,68,98910
2026-05-18T07:29:00.173+00:00,1779089340173133000,609,R,7839,10708,9311,11998,7839,10708,9311,11998,22331,25822,24402,24791,-187,-169,41,-0.733333,-0.662745,0.160784,0,68,18980
2026-05-18T07:29:00.173+00:00,1779089340173198000,610,R,7840,10709,9312,12000,7840,10709,9312,12000,22330,25817,24402,24790,-188,-168,41,-0.737255,-0.658824,0.160784,0,68,28980
2026-05-18T07:29:00.173+00:00,1779089340173262000,611,R,7842,10710,9312,11998,7842,10710,9312,11998,22331,25818,24405,24792,-187,-168,41,-0.733333,-0.658824,0.160784,0,68,38980
2026-05-18T07:29:00.322+00:00,1779089340322056000,612,R,7840,10699,9314,12003,7840,10699,9314,12003,22337,25821,24406,24794,-187,-168,41,-0.733333,-0.658824,0.160784,0,68,48980
2026-05-18T07:29:00.322+00:00,1779089340322210000,613,R,7844,10712,9313,12002,7844,10712,9313,12002,22334,25818,24405,24794,-187,-168,41,-0.733333,-0.658824,0.160784,0,68,58980
2026-05-18T07:29:00.322+00:00,1779089340322284000,614,R,7846,10721,9321,12011,7846,10721,9321,12011,22341,25828,24420,24800,-189,-167,43,-0.741176,-0.654902,0.168627,0,68,c9040
2026-05-18T07:29:00.322+00:00,1779089340322350000,615,R,7846,10722,9321,12012,7846,10722,9321,12012,22342,25827,24420,24801,-189,-167,42,-0.741176,-0.654902,0.164706,0,68,d9040
2026-05-18T07:29:00.322+00:00,1779089340322435000,616,R,7847,10722,9320,12013,7847,10722,9320,12013,22345,25829,24424,24802,-189,-167,42,-0.741176,-0.654902,0.164706,0,68,e9040
2026-05-18T07:29:00.471+00:00,1779089340471506000,617,R,7847,10725,9322,12014,7847,10725,9322,12014,22346,25830,24423,24806,-189,-167,41,-0.741176,-0.654902,0.160784,0,68,f9040
2026-05-18T07:29:00.471+00:00,1779089340471612000,618,R,7851,10731,9313,12014,7851,10731,9313,12014,22346,25830,24426,24806,-190,-167,42,-0.745098,-0.654902,0.164706,0,68,09040
2026-05-18T07:29:00.471+00:00,1779089340471648000,619,R,7853,10735,9327,12028,7853,10735,9327,12028,22353,25833,24439,24817,-189,-167,42,-0.741176,-0.654902,0.164706,0,68,89110
2026-05-18T07:29:00.471+00:00,1779089340471680000,620,R,7856,10735,9329,12027,7856,10735,9329,12027,22353,25838,24434,24819,-190,-169,42,-0.745098,-0.662745,0.164706,0,68,99110
2026-05-18T07:29:00.471+00:00,1779089340471709000,621,R,7856,10735,9326,12028,7856,10735,9326,12028,22351,25836,24437,24820,-188,-167,41,-0.737255,-0.654902,0.160784,0,68,a9110
2026-05-18T07:29:00.622+00:00,1779089340622137000,622,R,7856,10732,9327,12025,7856,10732,9327,12025,22354,25837,24434,24824,-188,-168,41,-0.737255,-0.658824,0.160784,0,68,b9110
2026-05-18T07:29:00.622+00:00,1779089340622292000,623,R,7858,10724,9328,12029,7858,10724,9328,12029,22350,25831,24428,24818,-190,-168,41,-0.745098,-0.658824,0.160784,0,68,c9110
2026-05-18T07:29:00.622+00:00,1779089340622442000,624,R,7841,10702,9312,11996,7841,10702,9312,11996,22335,25820,24395,24789,-188,-167,42,-0.737255,-0.654902,0.164706,0,68,39170
2026-05-18T07:29:00.622+00:00,1779089340622550000,625,R,7844,10707,9313,11998,7844,10707,9313,11998,22335,25811,24397,24788,-188,-168,41,-0.737255,-0.658824,0.160784,0,68,49170
2026-05-18T07:29:00.622+00:00,1779089340622625000,626,R,7841,10704,9311,11998,7841,10704,9311,11998,22330,25810,24399,24789,-188,-168,41,-0.737255,-0.658824,0.160784,0,68,59170
2026-05-18T07:29:00.772+00:00,1779089340772703000,627,R,7841,10704,9311,11993,7841,10704,9311,11993,22333,25817,24395,24787,-188,-169,41,-0.737255,-0.662745,0.160784,0,68,69170
2026-05-18T07:29:00.772+00:00,1779089340772834000,628,R,7840,10700,9309,11992,7840,10700,9309,11992,22331,25812,24396,24784,-189,-167,42,-0.741176,-0.654902,0.164706,0,68,79170
2026-05-18T07:29:00.772+00:00,1779089340772909000,629,R,7838,10702,9310,11991,7838,10702,9310,11991,22326,25807,24400,24779,-189,-165,41,-0.741176,-0.647059,0.160784,0,68,e9230
2026-05-18T07:29:00.772+00:00,1779089340772974000,630,R,7841,10704,9309,11993,7841,10704,9309,11993,22329,25808,24395,24777,-187,-166,41,-0.733333,-0.65098,0.160784,0,68,f9230
2026-05-18T07:29:00.773+00:00,1779089340773037000,631,R,7838,10703,9310,11992,7838,10703,9310,11992,22325,25807,24400,24783,-189,-165,41,-0.741176,-0.647059,0.160784,0,68,09230
2026-05-18T07:29:00.921+00:00,1779089340921270000,632,R,7842,10705,9311,11992,7842,10705,9311,11992,22331,25811,24397,24784,-190,-168,41,-0.745098,-0.658824,0.160784,0,68,19230
2026-05-18T07:29:00.921+00:00,1779089340921394000,633,R,7840,10704,9311,11994,7840,10704,9311,11994,22328,25807,24395,24780,-190,-169,42,-0.745098,-0.662745,0.164706,0,68,29230
2026-05-18T07:29:00.921+00:00,1779089340921467000,634,R,7839,10703,9310,11993,7839,10703,9310,11993,22327,25806,24395,24782,-188,-169,42,-0.737255,-0.662745,0.164706,0,68,39230
2026-05-18T07:29:00.921+00:00,1779089340921532000,635,R,7839,10710,9311,11998,7839,10710,9311,11998,22330,25807,24401,24786,-188,-167,41,-0.737255,-0.654902,0.160784,0,68,f9340
2026-05-18T07:29:00.921+00:00,1779089340921596000,636,R,7853,10703,9325,12000,7853,10703,9325,12000,22323,25803,24405,24786,-189,-168,40,-0.741176,-0.658824,0.156863,0,68,09340
2026-05-18T07:29:01.070+00:00,1779089341070741000,637,R,7842,10708,9310,11999,7842,10708,9310,11999,22327,25805,24405,24786,-189,-168,41,-0.741176,-0.658824,0.160784,0,68,19340
2026-05-18T07:29:01.070+00:00,1779089341070884000,638,R,7842,10713,9312,12006,7842,10713,9312,12006,22329,25807,24404,24787,-188,-169,41,-0.737255,-0.662745,0.160784,0,68,29340
2026-05-18T07:29:01.070+00:00,1779089341070957000,639,R,7844,10712,9312,12002,7844,10712,9312,12002,22327,25811,24408,24786,-189,-168,41,-0.741176,-0.658824,0.160784,0,68,39340
2026-05-18T07:29:01.071+00:00,1779089341071022000,640,R,7847,10720,9314,12008,7847,10720,9314,12008,22336,25814,24417,24796,-187,-168,41,-0.733333,-0.658824,0.160784,0,68,b9410
2026-05-18T07:29:01.071+00:00,1779089341071087000,641,R,7838,10717,9302,11998,7838,10717,9302,11998,22329,25806,24414,24786,-188,-169,40,-0.737255,-0.662745,0.156863,0,68,c9410
2026-05-18T07:29:01.221+00:00,1779089341221515000,642,R,7848,10723,9317,12012,7848,10723,9317,12012,22338,25815,24422,24797,-188,-168,40,-0.737255,-0.658824,0.156863,0,68,d9410
2026-05-18T07:29:01.221+00:00,1779089341221601000,643,R,7850,10723,9316,12015,7850,10723,9316,12015,22340,25816,24421,24799,-189,-168,40,-0.741176,-0.658824,0.156863,0,68,e9410
2026-05-18T07:29:01.221+00:00,1779089341221632000,644,R,7851,10728,9320,12018,7851,10728,9320,12018,22342,25817,24421,24799,-188,-168,41,-0.737255,-0.658824,0.160784,0,68,f9410
2026-05-18T07:29:01.221+00:00,1779089341221659000,645,R,7856,10735,9325,12026,7856,10735,9325,12026,22348,25827,24432,24810,-190,-168,41,-0.745098,-0.658824,0.160784,0,68,69470
2026-05-18T07:29:01.221+00:00,1779089341221685000,646,R,7855,10734,9322,12025,7855,10734,9322,12025,22345,25824,24429,24810,-189,-168,40,-0.741176,-0.658824,0.156863,0,68,79470
2026-05-18T07:29:01.221+00:00,1779089341221710000,647,R,7857,10744,9328,12034,7857,10744,9328,12034,22349,25829,24436,24818,-188,-168,41,-0.737255,-0.658824,0.160784,0,68,89470
2026-05-18T07:29:01.372+00:00,1779089341373016000,648,R,7855,10737,9324,12030,7855,10737,9324,12030,22349,25827,24433,24811,-189,-167,41,-0.741176,-0.654902,0.160784,0,68,99470
2026-05-18T07:29:01.373+00:00,1779089341373166000,649,R,7856,10737,9326,12028,7856,10737,9326,12028,22350,25828,24439,24818,-190,-168,42,-0.745098,-0.658824,0.164706,0,68,a9470
2026-05-18T07:29:01.373+00:00,1779089341373244000,650,R,7852,10720,9320,12012,7852,10720,9320,12012,22340,25819,24412,24801,-189,-168,40,-0.741176,-0.658824,0.156863,0,68,29540
2026-05-18T07:29:01.373+00:00,1779089341373314000,651,R,7850,10717,9316,12008,7850,10717,9316,12008,22339,25817,24410,24797,-186,-167,40,-0.729412,-0.654902,0.156863,0,68,39540
2026-05-18T07:29:01.373+00:00,1779089341373378000,652,R,7847,10713,9316,12007,7847,10713,9316,12007,22338,25815,24400,24789,-187,-167,39,-0.733333,-0.654902,0.152941,0,68,49540
2026-05-18T07:29:01.522+00:00,1779089341522273000,653,R,7846,10711,9315,12002,7846,10711,9315,12002,22335,25812,24408,24798,-188,-167,40,-0.737255,-0.654902,0.156863,0,68,59540
2026-05-18T07:29:01.522+00:00,1779089341522322000,654,R,7848,10710,9315,12005,7848,10710,9315,12005,22336,25806,24404,24789,-188,-167,40,-0.737255,-0.654902,0.156863,0,68,69540
2026-05-18T07:29:01.522+00:00,1779089341522339000,655,R,7845,10712,9313,12002,7845,10712,9313,12002,22327,25804,24400,24783,-189,-168,42,-0.741176,-0.658824,0.164706,0,68,f9620
2026-05-18T07:29:01.522+00:00,1779089341522355000,656,R,7844,10713,9313,12002,7844,10713,9313,12002,22333,25809,24405,24790,-188,-168,40,-0.737255,-0.658824,0.156863,0,68,09620
2026-05-18T07:29:01.522+00:00,1779089341522370000,657,R,7845,10712,9312,12002,7845,10712,9312,12002,22329,25806,24405,24781,-187,-166,40,-0.733333,-0.65098,0.156863,0,68,19620
2026-05-18T07:29:01.673+00:00,1779089341674025000,658,R,7845,10713,9312,12002,7845,10713,9312,12002,22328,25802,24403,24788,-188,-167,41,-0.737255,-0.654902,0.160784,0,68,29620
2026-05-18T07:29:01.674+00:00,1779089341674210000,659,R,7844,10714,9314,12003,7844,10714,9314,12003,22327,25803,24402,24785,-189,-167,41,-0.741176,-0.654902,0.160784,0,68,39620
2026-05-18T07:29:01.674+00:00,1779089341674276000,660,R,7845,10713,9310,12002,7845,10713,9310,12002,22324,25797,24404,24784,-189,-168,41,-0.741176,-0.658824,0.160784,0,68,a9680
2026-05-18T07:29:01.674+00:00,1779089341674312000,661,R,7841,10713,9311,12001,7841,10713,9311,12001,22325,25804,24402,24782,-189,-169,41,-0.741176,-0.662745,0.160784,0,68,b9680
2026-05-18T07:29:01.674+00:00,1779089341674345000,662,R,7844,10713,9314,12003,7844,10713,9314,12003,22326,25803,24405,24788,-189,-168,41,-0.741176,-0.658824,0.160784,0,68,c9680
2026-05-18T07:29:01.822+00:00,1779089341822899000,663,R,7844,10714,9312,12002,7844,10714,9312,12002,22326,25803,24403,24783,-188,-168,41,-0.737255,-0.658824,0.160784,0,68,d9680
2026-05-18T07:29:01.823+00:00,1779089341823060000,664,R,7845,10718,9315,12003,7845,10718,9315,12003,22325,25799,24403,24782,-189,-168,40,-0.741176,-0.658824,0.156863,0,68,e9680
2026-05-18T07:29:01.823+00:00,1779089341823133000,665,R,7844,10714,9314,12007,7844,10714,9314,12007,22324,25800,24403,24787,-188,-167,41,-0.737255,-0.654902,0.160784,0,68,f9680
2026-05-18T07:29:01.823+00:00,1779089341823198000,666,R,7847,10723,9314,12010,7847,10723,9314,12010,22329,25807,24413,24794,-189,-169,41,-0.741176,-0.662745,0.160784,0,68,69740
2026-05-18T07:29:01.823+00:00,1779089341823262000,667,R,7847,10722,9317,12012,7847,10722,9317,12012,22328,25805,24416,24794,-189,-168,41,-0.741176,-0.658824,0.160784,0,68,79740
2026-05-18T07:29:01.971+00:00,1779089341971416000,668,R,7847,10725,9318,12012,7847,10725,9318,12012,22331,25807,24416,24794,-188,-168,41,-0.737255,-0.658824,0.160784,0,68,89740
2026-05-18T07:29:01.971+00:00,1779089341971544000,669,R,7849,10725,9317,12017,7849,10725,9317,12017,22330,25807,24417,24796,-188,-168,41,-0.737255,-0.658824,0.160784,0,68,99740
2026-05-18T07:29:01.971+00:00,1779089341971616000,670,R,7848,10725,9318,12015,7848,10725,9318,12015,22328,25806,24418,24797,-188,-169,41,-0.737255,-0.662745,0.160784,0,68,a9740
2026-05-18T07:29:01.971+00:00,1779089341971683000,671,R,7851,10734,9322,12024,7851,10734,9322,12024,22336,25814,24426,24804,-189,-168,41,-0.741176,-0.658824,0.160784,0,68,29810
2026-05-18T07:29:01.971+00:00,1779089341971748000,672,R,7854,10735,9323,12023,7854,10735,9323,12023,22334,25814,24430,24806,-189,-168,41,-0.741176,-0.658824,0.160784,0,68,39810
2026-05-18T07:29:02.121+00:00,1779089342122015000,673,R,7853,10736,9318,12028,7853,10736,9318,12028,22339,25812,24436,24808,-189,-168,41,-0.741176,-0.658824,0.160784,0,68,49810
2026-05-18T07:29:02.122+00:00,1779089342122138000,674,R,7854,10739,9322,12027,7854,10739,9322,12027,22339,25816,24432,24807,-189,-169,41,-0.741176,-0.662745,0.160784,0,68,59810
2026-05-18T07:29:02.122+00:00,1779089342122217000,675,R,7855,10740,9324,12030,7855,10740,9324,12030,22338,25815,24433,24809,-189,-168,42,-0.741176,-0.658824,0.164706,0,68,69810
